Folder: Root (part 5)

File: Fm2_32.txt
Time (s)	Load (N)	Extension (mm)	Deflection from Preload (mm)
0.0000
1.026	0.015391	0.035078	-0.43133
2.052	0.062658	0.10386	-0.36255
3.078	0.10552	0.17240	-0.29401
4.105	0.17050	0.24120	-0.22521
5.131	0.25261	0.30976	-0.15665
6.157	0.35123	0.37860	-0.087815
7.183	0.46558	0.44718	-0.019231
8.209	0.59136	0.51588	0.049467
9.235	0.73226	0.58444	0.11803
10.26	0.87354	0.65325	0.18684
11.29	1.0257	0.72193	0.25552
12.31	1.1761	0.79044	0.32403
13.34	1.3261	0.85927	0.39286
14.37	1.4722	0.92797	0.46156
15.39	1.6123	0.99659	0.53018
16.42	1.7472	1.0652	0.59878
17.44	1.8762	1.1340	0.66761
18.47	1.9703	1.2026	0.73620
19.50	2.0337	1.2712	0.80479
20.52	2.0931	1.3399	0.87346
21.55	2.1932	1.4087	0.94233
22.58	2.2978	1.4772	1.0108
23.60	2.3997	1.5459	1.0795
24.63	2.4977	1.6147	1.1483
25.65	2.5874	1.6834	1.2170
26.68	2.6795	1.7521	1.2857
27.71	2.7643	1.8208	1.3544
28.73	2.8460	1.8893	1.4229
29.76	2.9260	1.9581	1.4917
30.78	2.9778	2.0267	1.5603
31.81	3.0454	2.0953	1.6289
32.84	3.1125	2.1640	1.6976
33.86	3.1689	2.2328	1.7664
34.89	3.2291	2.3015	1.8351
35.92	3.2796	2.3701	1.9037
36.94	3.3264	2.4388	1.9724
37.97	3.3623	2.5075	2.0411
38.99	3.4034	2.5761	2.1097
40.02	3.4485	2.6449	2.1785
41.05	3.4899	2.7137	2.2473
42.07	3.5251	2.7822	2.3158
43.10	3.5602	2.8508	2.3844
44.12	3.5357	2.9196	2.4532
45.15	3.5723	2.9882	2.5218
46.18	3.5714	3.0570	2.5906
47.20	3.5912	3.1256	2.6592
48.23	3.6114	3.1942	2.7278
49.26	3.6463	3.2630	2.7965
50.28	3.6681	3.3316	2.8652
51.31	3.6997	3.4002	2.9338
52.33	3.7248	3.4691	3.0027
53.36	3.7535	3.5376	3.0712
54.39	3.7822	3.6064	3.1400
55.41	3.8084	3.6751	3.2087
56.44	3.8255	3.7438	3.2774
57.46	3.8485	3.8124	3.3460
58.49	3.8709	3.8811	3.4147
59.52	3.8928	3.9497	3.4833
60.54	3.9154	4.0184	3.5519
61.57	3.9321	4.0871	3.6207
62.60	3.9510	4.1557	3.6893
63.62	3.9719	4.2244	3.7580
64.65	3.9930	4.2931	3.8267
65.67	4.0121	4.3619	3.8955
66.70	4.0132	4.4306	3.9641
67.73	4.0096	4.4991	4.0327
68.75	4.0286	4.5679	4.1015
69.78	4.0448	4.6366	4.1702
70.80	4.0565	4.7053	4.2389
71.83	4.0756	4.7738	4.3074
72.86	4.0941	4.8427	4.3763
73.88	4.1117	4.9112	4.4448
74.91	4.1270	4.9798	4.5134
75.94	4.1462	5.0485	4.5821
76.96	4.1578	5.1173	4.6509
77.99	4.1676	5.1859	4.7195
79.01	4.1331	5.2546	4.7882
80.04	4.1439	5.3234	4.8570
81.07	4.1669	5.3921	4.9257
82.09	4.1813	5.4606	4.9942
83.12	4.1901	5.5294	5.0629
84.14	4.2065	5.5980	5.1316
85.17	4.2228	5.6667	5.2003
86.20	4.2392	5.7353	5.2689
87.22	4.2537	5.8039	5.3375
88.25	4.2661	5.8728	5.4064
89.28	4.2819	5.9414	5.4750
90.30	4.2988	6.0101	5.5437
91.33	4.3164	6.0787	5.6123
92.35	4.3296	6.1476	5.6812
93.38	4.3461	6.2160	5.7496
94.41	4.3638	6.2849	5.8184
95.43	4.3807	6.3535	5.8871
96.46	4.3974	6.4221	5.9557
97.48	4.4142	6.4908	6.0244
98.51	4.4338	6.5595	6.0931
99.54	4.4503	6.6281	6.1617
100.6	4.4669	6.6968	6.2304
101.6	4.4845	6.7655	6.2991
102.6	4.5017	6.8343	6.3679
103.6	4.5208	6.9029	6.4365
104.7	4.5398	6.9717	6.5053
105.7	4.5527	7.0403	6.5739
106.7	4.5690	7.1089	6.6425
107.7	4.5846	7.1776	6.7112
108.8	4.5998	7.2463	6.7799
109.8	4.6186	7.3151	6.8487
110.8	4.6381	7.3838	6.9174
111.9	4.6565	7.4524	6.9860
112.9	4.6761	7.5210	7.0545
113.9	4.6958	7.5899	7.1234
114.9	4.7202	7.6585	7.1921
116.0	4.7449	7.7270	7.2606
117.0	4.7705	7.7958	7.3294
118.0	4.7962	7.8643	7.3979
119.0	4.8220	7.9331	7.4667
120.1	4.8486	8.0018	7.5354
121.1	4.8727	8.0705	7.6041
122.1	4.8979	8.1391	7.6727
123.1	4.9254	8.2077	7.7413
124.2	4.9494	8.2766	7.8102
125.2	4.9729	8.3451	7.8787
126.2	4.9960	8.4139	7.9475
127.2	5.0197	8.4826	8.0162
128.3	5.0440	8.5512	8.0848
129.3	5.0685	8.6199	8.1535
130.3	5.0983	8.6886	8.2222
131.3	5.1192	8.7573	8.2909
132.4	5.1430	8.8259	8.3595
133.4	5.1676	8.8946	8.4282
134.4	5.1872	8.9632	8.4968
135.5	5.2051	9.0319	8.5655
136.5	5.2170	9.1006	8.6341
137.5	5.2350	9.1693	8.7029
138.5	5.2488	9.2380	8.7716
139.6	5.2734	9.3068	8.8404
140.6	5.3009	9.3754	8.9090
141.6	5.3260	9.4441	8.9777
142.6	5.3524	9.5128	9.0463
143.7	5.3811	9.5814	9.1150
144.7	5.4097	9.6500	9.1836
145.7	5.4392	9.7187	9.2523
146.7	5.4659	9.7875	9.3210
147.8	5.4927	9.8561	9.3897
148.8	5.5165	9.9248	9.4584
149.8	5.5388	9.9934	9.5270
150.8	5.5617	10.062	9.5957
151.9	5.5814	10.131	9.6646
152.9	5.6046	10.199	9.7330
153.9	5.6247	10.268	9.8018
154.9	5.6479	10.337	9.8704
156.0	5.6666	10.406	9.9392
157.0	5.6837	10.474	10.008
158.0	5.7062	10.543	10.077
159.1	5.7263	10.612	10.145
160.1	5.7463	10.680	10.214
161.1	5.7658	10.749	10.282
162.1	5.7865	10.818	10.351
163.2	5.8148	10.886	10.420
164.2	5.8413	10.955	10.489
165.2	5.8685	11.024	10.557
166.2	5.8977	11.092	10.626
167.3	5.9199	11.161	10.695
168.3	5.9425	11.230	10.763
169.3	5.9654	11.298	10.832
170.3	5.9934	11.367	10.901
171.4	6.0256	11.436	10.969
172.4	6.0625	11.504	11.038
173.4	6.0987	11.573	11.107
174.4	6.1330	11.642	11.175
175.5	6.1667	11.711	11.244
176.5	6.2013	11.779	11.313
177.5	6.2296	11.848	11.381
178.6	6.2634	11.916	11.450
179.6	6.2966	11.985	11.519
180.6	6.3293	12.054	11.588
181.6	6.3645	12.122	11.656
182.7	6.3938	12.191	11.725
183.7	6.4228	12.260	11.793
184.7	6.4421	12.328	11.862
185.7	6.4601	12.397	11.931
186.8	6.4877	12.466	11.999
187.8	6.5121	12.535	12.068
188.8	6.5347	12.603	12.137
189.8	6.5576	12.672	12.206
190.9	6.5806	12.741	12.274
191.9	6.6054	12.809	12.343
192.9	6.6079	12.878	12.412
193.9	6.6127	12.947	12.480
195.0	6.6207	13.015	12.549
196.0	6.6354	13.084	12.617
197.0	6.6536	13.153	12.686
198.0	6.6747	13.221	12.755
199.1	6.7022	13.290	12.824
200.1	6.7284	13.359	12.892
201.1	6.7568	13.427	12.961
202.2	6.7835	13.496	13.030
203.2	6.8141	13.565	13.098
204.2	-0.076294

File: Fm2_34.txt
Time (s)	Load (N)	Extension (mm)	Deflection from Preload (mm)
0.0000
0.7795	0.14872	0.019330	-0.20938
1.559	0.24758	0.071433	-0.15727
2.339	0.33818	0.12363	-0.10507
3.118	0.40993	0.17569	-0.053019
3.898	0.49865	0.22791	-0.00079228
4.677	0.58738	0.28024	0.051530
5.457	0.67931	0.33232	0.10361
6.236	0.76764	0.38456	0.15586
7.016	0.85597	0.43656	0.20785
7.795	0.94293	0.48878	0.26008
8.575	1.0325	0.54091	0.31221
9.354	1.1275	0.59316	0.36445
10.13	1.2203	0.64530	0.41659
10.91	1.3172	0.69746	0.46876
11.69	1.4161	0.74958	0.52088
12.47	1.5138	0.80190	0.57319
13.25	1.6149	0.85394	0.62523
14.03	1.7190	0.90622	0.67751
14.81	1.8271	0.95827	0.72956
15.59	1.9354	1.0106	0.78190
16.37	2.0504	1.0628	0.83409
17.15	2.1671	1.1150	0.88625
17.93	2.2855	1.1670	0.93834
18.71	2.4085	1.2193	0.99055
19.49	2.5341	1.2712	1.0425
20.27	2.6649	1.3235	1.0948
21.05	2.7975	1.3757	1.1470
21.83	2.9361	1.4280	1.1992
22.61	3.0803	1.4801	1.2514
23.39	3.2299	1.5322	1.3035
24.16	3.3846	1.5846	1.3558
24.94	3.5421	1.6366	1.4079
25.72	3.6995	1.6887	1.4599
26.50	3.8652	1.7409	1.5122
27.28	4.0397	1.7931	1.5643
28.06	4.2075	1.8453	1.6166
28.84	4.3889	1.8974	1.6686
29.62	4.5771	1.9496	1.7209
30.40	4.7673	2.0018	1.7731
31.18	4.9609	2.0540	1.8253
31.96	5.1696	2.1061	1.8774
32.74	5.3760	2.1583	1.9296
33.52	5.5837	2.2104	1.9817
34.30	5.7988	2.2626	2.0339
35.08	6.0216	2.3149	2.0861
35.86	6.2389	2.3669	2.1382
36.64	6.4637	2.4192	2.1905
37.42	6.6960	2.4713	2.2426
38.20	6.9298	2.5235	2.2948
38.98	7.1719	2.5756	2.3469
39.75	7.4234	2.6279	2.3992
40.53	7.6737	2.6800	2.4513
41.31	7.9299	2.7322	2.5035
42.09	8.1958	2.7844	2.5557
42.87	8.4622	2.8364	2.6077
43.65	8.7302	2.8887	2.6600
44.43	8.6873	2.9409	2.7122
45.21	8.7691	2.9929	2.7642
45.99	8.9533	3.0453	2.8166
46.77	9.2063	3.0973	2.8686
47.55	9.4866	3.1496	2.9209
48.33	9.7594	3.2016	2.9729
49.11	10.047	3.2538	3.0251
49.89	10.339	3.3059	3.0772
50.67	10.615	3.3583	3.1296
51.45	10.915	3.4103	3.1816
52.23	11.215	3.4624	3.2337
53.01	11.530	3.5146	3.2859
53.79	11.802	3.5668	3.3381
54.57	12.098	3.6190	3.3903
55.34	12.411	3.6712	3.4425
56.12	12.720	3.7235	3.4948
56.90	13.025	3.7755	3.5468
57.68	13.318	3.8278	3.5991
58.46	13.615	3.8799	3.6512
59.24	13.903	3.9320	3.7033
60.02	14.201	3.9843	3.7555
60.80	14.494	4.0365	3.8078
61.58	14.761	4.0885	3.8598
62.36	15.047	4.1409	3.9122
63.14	15.343	4.1929	3.9642
63.92	15.648	4.2451	4.0163
64.70	15.931	4.2973	4.0685
65.48	16.228	4.3494	4.1206
66.26	16.517	4.4016	4.1729
67.04	16.795	4.4537	4.2250
67.82	17.079	4.5060	4.2773
68.60	17.338	4.5582	4.3295
69.38	17.583	4.6102	4.3815
70.16	17.808	4.6624	4.4337
70.93	18.055	4.7146	4.4859
71.71	18.304	4.7669	4.5382
72.49	18.536	4.8190	4.5903
73.27	18.713	4.8711	4.6424
74.05	18.946	4.9234	4.6947
74.83	19.171	4.9754	4.7467
75.61	19.409	5.0276	4.7989
76.39	19.648	5.0798	4.8511
77.17	19.861	5.1319	4.9032
77.95	20.047	5.1842	4.9555
78.73	20.271	5.2363	5.0076
79.51	20.482	5.2886	5.0599
80.29	20.683	5.3406	5.1119
81.07	20.870	5.3930	5.1643
81.85	21.026	5.4451	5.2164
82.63	21.215	5.4971	5.2684
83.41	21.409	5.5492	5.3205
84.19	21.597	5.6015	5.3728
84.97	21.784	5.6537	5.4250
85.75	21.978	5.7059	5.4771
86.52	22.164	5.7581	5.5293
87.30	22.330	5.8102	5.5815
88.08	22.512	5.8624	5.6337
88.86	22.692	5.9145	5.6858
89.64	22.869	5.9668	5.7380
90.42	23.029	6.0189	5.7902
91.20	23.206	6.0711	5.8424
91.98	23.379	6.1232	5.8945
92.76	23.547	6.1753	5.9466
93.54	23.716	6.2277	5.9990
94.32	23.886	6.2797	6.0510
95.10	24.039	6.3320	6.1032
95.88	24.197	6.3841	6.1553
96.66	24.360	6.4362	6.2075
97.44	24.508	6.4885	6.2598
98.22	24.659	6.5406	6.3119
99.00	24.816	6.5927	6.3640
99.78	24.971	6.6450	6.4163
100.6	25.104	6.6971	6.4684
101.3	25.258	6.7493	6.5206
102.1	25.403	6.8014	6.5727
102.9	25.543	6.8537	6.6250
103.7	25.672	6.9058	6.6771
104.5	25.814	6.9580	6.7293
105.2	25.951	7.0102	6.7815
106.0	26.089	7.0624	6.8337
106.8	26.223	7.1143	6.8856
107.6	26.349	7.1666	6.9379
108.4	26.481	7.2188	6.9901
109.1	26.627	7.2711	7.0424
109.9	26.757	7.3232	7.0945
110.7	26.872	7.3754	7.1467
111.5	27.021	7.4275	7.1988
112.2	27.158	7.4798	7.2511
113.0	27.283	7.5319	7.3031
113.8	27.420	7.5839	7.3552
114.6	27.555	7.6363	7.4076
115.4	27.688	7.6884	7.4597
116.1	27.815	7.7405	7.5118
116.9	27.955	7.7927	7.5640
117.7	28.082	7.8448	7.6161
118.5	28.195	7.8971	7.6684
119.3	28.325	7.9493	7.7205
120.0	28.450	8.0014	7.7727
120.8	28.558	8.0536	7.8249
121.6	28.687	8.1056	7.8769
122.4	28.808	8.1580	7.9293
123.2	28.910	8.2101	7.9813
123.9	29.030	8.2623	8.0336
124.7	29.165	8.3144	8.0857
125.5	29.277	8.3665	8.1378
126.3	29.395	8.4188	8.1901
127.1	29.513	8.4709	8.2422
127.8	29.625	8.5232	8.2945
128.6	29.745	8.5753	8.3466
129.4	29.861	8.6274	8.3987
130.2	29.976	8.6796	8.4508
131.0	30.100	8.7318	8.5031
131.7	30.204	8.7839	8.5552
132.5	30.322	8.8361	8.6073
133.3	30.433	8.8884	8.6597
134.1	30.543	8.9405	8.7118
134.9	30.671	8.9926	8.7639
135.6	30.780	9.0447	8.8160
136.4	30.886	9.0970	8.8683
137.2	31.006	9.1491	8.9204
138.0	31.129	9.2013	8.9726
138.8	31.233	9.2536	9.0249
139.5	31.356	9.3056	9.0769
140.3	31.469	9.3579	9.1292
141.1	31.572	9.4100	9.1813
141.9	31.681	9.4621	9.2334
142.6	31.803	9.5144	9.2857
143.4	31.908	9.5665	9.3378
144.2	32.009	9.6187	9.3900
145.0	32.121	9.6709	9.4422
145.8	32.233	9.7230	9.4943
146.5	32.328	9.7753	9.5466
147.3	32.444	9.8273	9.5986
148.1	32.546	9.8796	9.6509
148.9	32.647	9.9316	9.7029
149.7	32.748	9.9839	9.7551
150.4	32.847	10.036	9.8073
151.2	32.945	10.088	9.8596
152.0	33.037	10.140	9.9116
152.8	33.139	10.193	9.9638
153.6	33.241	10.245	10.016
154.3	33.312	10.297	10.068
155.1		10.349	10.120

File: Fm2_35.txt
Time (s)	Load (N)	Extension (mm)	Deflection from Preload (mm)
0.0000
0.6661	0.0078176	0.012517	-0.50812
1.332	0.046247	0.057233	-0.46341
1.998	0.079282	0.10167	-0.41897
2.664	0.11491	0.14659	-0.37404
3.331	0.15092	0.19077	-0.32987
3.997	0.19102	0.23547	-0.28517
4.663	0.23218	0.28010	-0.24054
5.329	0.27498	0.32471	-0.19592
5.995	0.32298	0.36914	-0.15149
6.661	0.37272	0.41391	-0.10672
7.327	0.42370	0.45836	-0.062282
7.993	0.47713	0.50309	-0.017550
8.660	0.53557	0.54758	0.026946
9.326	0.59999	0.59212	0.071481
9.992	0.66565	0.63679	0.11616
10.66	0.73241	0.68125	0.16061
11.32	0.80761	0.72594	0.20530
11.99	0.88469	0.77045	0.24981
12.66	0.96368	0.81494	0.29431
13.32	1.0440	0.85954	0.33890
13.99	1.1270	0.90421	0.38357
14.65	1.2149	0.94896	0.42832
15.32	1.2989	0.99343	0.47279
15.99	1.3821	1.0380	0.51734
16.65	1.4634	1.0826	0.56192
17.32	1.5473	1.1271	0.60646
17.99	1.6345	1.1718	0.65116
18.65	1.7225	1.2163	0.69565
19.32	1.8060	1.2608	0.74017
19.98	1.8862	1.3055	0.78487
20.65	1.9669	1.3500	0.82939
21.32	2.0389	1.3946	0.87395
21.98	2.1189	1.4393	0.91870
22.65	2.1949	1.4839	0.96329
23.31	2.2703	1.5284	1.0078
23.98	2.3473	1.5730	1.0523
24.65	2.4205	1.6175	1.0969
25.31	2.4912	1.6622	1.1416
25.98	2.5282	1.7067	1.1860
26.64	2.5905	1.7513	1.2307
27.31	2.6566	1.7959	1.2752
27.98	2.7228	1.8404	1.3197
28.64	2.7858	1.8851	1.3645
29.31	2.8444	1.9295	1.4089
29.98	2.9018	1.9743	1.4536
30.64	2.9499	2.0188	1.4981
31.31	3.0054	2.0634	1.5428
31.97	3.0538	2.1080	1.5873
32.64	3.1033	2.1526	1.6320
33.31	3.1102	2.1971	1.6764
33.97	3.1448	2.2416	1.7210
34.64	3.1801	2.2862	1.7656
35.30	3.1550	2.3308	1.8101
35.97	3.2110	2.3755	1.8549
36.64	3.2666	2.4201	1.8994
37.30	3.3151	2.4646	1.9439
37.97	3.3601	2.5092	1.9885
38.63	3.4003	2.5538	2.0332
39.30	3.4347	2.5984	2.0778
39.97	3.4690	2.6430	2.1223
40.63	3.4859	2.6876	2.1669
41.30	3.5133	2.7320	2.2114
41.97	3.5404	2.7766	2.2560
42.63	3.5716	2.8213	2.3007
43.30	3.5988	2.8660	2.3453
43.96	3.6255	2.9105	2.3898
44.63	3.6457	2.9551	2.4344
45.30	3.6659	2.9996	2.4790
45.96	3.6864	3.0443	2.5236
46.63	3.7086	3.0887	2.5680
47.29	3.7340	3.1333	2.6127
47.96	3.7532	3.1779	2.6573
48.63	3.7661	3.2224	2.7018
49.29	3.7756	3.2671	2.7465
49.96	3.7938	3.3118	2.7912
50.63	3.8103	3.3563	2.8356
51.29	3.8315	3.4008	2.8802
51.96	3.8519	3.4454	2.9247
52.62	3.8753	3.4900	2.9693
53.29	3.8920	3.5345	3.0139
53.96	3.9069	3.5792	3.0585
54.62	3.9261	3.6237	3.1031
55.29	3.9435	3.6683	3.1477
55.95	3.9480	3.7128	3.1922
56.62	3.9565	3.7576	3.2369
57.29	3.9709	3.8021	3.2814
57.95	3.9921	3.8466	3.3260
58.62	4.0125	3.8911	3.3705
59.28	4.0349	3.9359	3.4152
59.95	4.0608	3.9804	3.4598
60.62	4.0839	4.0250	3.5044
61.28	4.1053	4.0695	3.5489
61.95	4.1282	4.1142	3.5936
62.62	4.1427	4.1588	3.6382
63.28	4.1586	4.2033	3.6826
63.95	4.1752	4.2479	3.7273
64.61	4.1906	4.2925	3.7719
65.28	4.2040	4.3370	3.8163
65.95	4.2164	4.3816	3.8610
66.61	4.2275	4.4263	3.9056
67.28	4.2403	4.4709	3.9503
67.94	4.2572	4.5155	3.9948
68.61	4.2712	4.5600	4.0393
69.28	4.2843	4.6044	4.0838
69.94	4.3028	4.6491	4.1285
70.61	4.3213	4.6936	4.1730
71.27	4.3403	4.7382	4.2176
71.94	4.3570	4.7829	4.2622
72.61	4.3785	4.8274	4.3068
73.27	4.3979	4.8720	4.3514
73.94	4.4171	4.9167	4.3960
74.61	4.4354	4.9612	4.4406
75.27	4.4536	5.0057	4.4851
75.94	4.4727	5.0503	4.5297
76.60	4.4922	5.0950	4.5744
77.27	4.5075	5.1395	4.6188
77.94	4.5239	5.1842	4.6636
78.60	4.5421	5.2286	4.7080
79.27	4.5597	5.2733	4.7527
79.93	4.5763	5.3179	4.7973
80.60	4.5861	5.3624	4.8417
81.27	4.5966	5.4070	4.8864
81.93	4.5958	5.4515	4.9309
82.60	4.5904	5.4962	4.9755
83.26	4.5734	5.5408	5.0202
83.93	4.5471	5.5854	5.0647
84.60	4.5053	5.6300	5.1094
85.26	4.4953	5.6745	5.1538
85.93	4.5071	5.7192	5.1985
86.60	4.5322	5.7636	5.2430
87.26	4.5615	5.8082	5.2876
87.93	4.5935	5.8530	5.3323
88.59	4.6249	5.8974	5.3767
89.26	4.6549	5.9419	5.4213
89.93	4.6807	5.9866	5.4660
90.59	4.7082	6.0312	5.5106
91.26	4.7319	6.0759	5.5552
91.92	4.7546	6.1204	5.5997
92.59	4.7710	6.1648	5.6442
93.26	4.7873	6.2095	5.6889
93.92	4.8068	6.2541	5.7334
94.59	4.8208	6.2987	5.7781
95.25	4.8347	6.3433	5.8227
95.92	4.8486	6.3877	5.8671
96.59	4.8627	6.4324	5.9118
97.25	4.8784	6.4771	5.9564
97.92	4.8947	6.5215	6.0009
98.59	4.9117	6.5662	6.0456
99.25	4.9294	6.6107	6.0901
99.92	4.9448	6.6552	6.1346
100.6	4.9601	6.6999	6.1793
101.3	4.9758	6.7445	6.2238
101.9	4.9939	6.7890	6.2684
102.6	5.0106	6.8336	6.3129
103.2	5.0271	6.8783	6.3577
103.9	5.0451	6.9227	6.4021
104.6	5.0605	6.9675	6.4469
105.2	5.0727	7.0119	6.4913
105.9	5.0781	7.0566	6.5360
106.6	5.0809	7.1011	6.5805
107.2	5.0907	7.1457	6.6250
107.9	5.1011	7.1902	6.6696
108.6	5.1125	7.2349	6.7142
109.2	5.1175	7.2796	6.7589
109.9	5.1304	7.3242	6.8035
110.6	5.1436	7.3686	6.8479
111.2	5.1587	7.4132	6.8925
111.9	5.1760	7.4578	6.9372
112.6	5.1928	7.5025	6.9818
113.2	5.2095	7.5469	7.0263
113.9	5.2254	7.5915	7.0708
114.6	5.2412	7.6362	7.1155
115.2	5.2530	7.6806	7.1600
115.9	5.2679	7.7252	7.2046
116.6	5.2851	7.7700	7.2493
117.2	5.3041	7.8145	7.2938
117.9	5.3232	7.8590	7.3383
118.6	5.3418	7.9037	7.3830
119.2	5.3628	7.9482	7.4275
119.9	5.3805	7.9927	7.4720
120.6	5.3984	8.0373	7.5167
121.2	5.4132	8.0819	7.5613
121.9	5.4326	8.1265	7.6059
122.6	5.4532	8.1711	7.6505
123.2	5.4744	8.2156	7.6950
123.9	5.4909	8.2604	7.7397
124.6	5.5076	8.3049	7.7843
125.2	5.5243	8.3494	7.8288
125.9	5.5410	8.3940	7.8734
126.6	5.5571	8.4386	7.9179
127.2	5.5755	8.4833	7.9627
127.9	5.5942	8.5279	8.0073
128.6	5.6135	8.5724	8.0518
129.2	5.6337	8.6169	8.0962
129.9	5.6538	8.6616	8.1410
130.6	5.6735	8.7062	8.1855
131.2	5.6928	8.7506	8.2300
131.9	5.7112	8.7952	8.2745
132.6		8.8399	8.3192

File: Fm2_38.txt
Time (s)	Load (N)	Extension (mm)	Deflection from Preload (mm)
0.0000
0.5653	0.0019073	0.0021076	-0.99052
1.131	0.0069366	0.039896	-0.95273
1.696	0.015620	0.077816	-0.91481
2.261	0.024124	0.11559	-0.87704
2.826	0.032628	0.15337	-0.83925
3.392	0.041132	0.19123	-0.80140
3.957	0.049636	0.22906	-0.76356
4.522	0.058324	0.26684	-0.72578
5.087	0.067985	0.30506	-0.68757
5.653	0.077755	0.34246	-0.65017
6.218	0.088820	0.38043	-0.61220
6.783	0.10221	0.41837	-0.57426
7.349	0.11559	0.45611	-0.53652
7.914	0.13033	0.49398	-0.49865
8.479	0.14637	0.53173	-0.46090
9.044	0.16804	0.56970	-0.42293
9.610	0.18829	0.60752	-0.38511
10.17	0.20853	0.64533	-0.34730
10.74	0.23067	0.68308	-0.30955
11.31	0.25459	0.72099	-0.27164
11.87	0.28039	0.75878	-0.23385
12.44	0.30840	0.79655	-0.19608
13.00	0.34060	0.83455	-0.15808
13.57	0.37325	0.87229	-0.12034
14.13	0.41112	0.91007	-0.082556
14.70	0.45009	0.94803	-0.044602
15.26	0.49201	0.98572	-0.0069106
15.83	0.53588	1.0236	0.030985
16.39	0.58495	1.0614	0.068773
16.96	0.63873	1.0992	0.10661
17.52	0.69261	1.1372	0.14456
18.09	0.74649	1.1749	0.18223
18.65	0.80140	1.2128	0.22017
19.22	0.86166	1.2507	0.25805
19.78	0.92284	1.2886	0.29593
20.35	0.98412	1.3262	0.33359
20.92	1.0479	1.3642	0.37155
21.48	1.1115	1.4018	0.40920
22.05	1.1746	1.4398	0.44713
22.61	1.2362	1.4776	0.48495
23.18	1.2941	1.5154	0.52277
23.74	1.3441	1.5533	0.56071
24.31	1.3998	1.5910	0.59835
24.87	1.4533	1.6290	0.63640
25.44	1.4712	1.6667	0.67411
26.00	1.5158	1.7047	0.71203
26.57	1.5745	1.7425	0.74983
27.13	1.6327	1.7803	0.78767
27.70	1.6894	1.8180	0.82541
28.26	1.7434	1.8559	0.86328
28.83	1.7924	1.8938	0.90117
29.39	1.8441	1.9316	0.93897
29.96	1.8957	1.9695	0.97685
30.52	1.9237	2.0073	1.0147
31.09	1.9679	2.0450	1.0524
31.66	2.0146	2.0829	1.0902
32.22	2.0642	2.1207	1.1281
32.79	2.1096	2.1586	1.1660
33.35	2.1525	2.1965	1.2039
33.92	2.1940	2.2342	1.2415
34.48	2.2355	2.2721	1.2795
35.05	2.2762	2.3098	1.3172
35.61	2.3158	2.3478	1.3552
36.18	2.3500	2.3857	1.3931
36.74	2.3868	2.4235	1.4309
37.31	2.4220	2.4612	1.4686
37.87	2.4567	2.4991	1.5065
38.44	2.4860	2.5370	1.5444
39.00	2.5176	2.5748	1.5821
39.57	2.5493	2.6126	1.6200
40.13	2.5786	2.6505	1.6578
40.70	2.6072	2.6883	1.6956
41.27	2.6317	2.7261	1.7335
41.83	2.6594	2.7640	1.7714
42.40	2.6862	2.8017	1.8091
42.96	2.7103	2.8395	1.8469
43.53	2.7105	2.8774	1.8848
44.09	2.7137	2.9154	1.9228
44.66	2.7281	2.9531	1.9604
45.22	2.7494	2.9910	1.9984
45.79	2.7762	3.0287	2.0361
46.35	2.7988	3.0666	2.0739
46.92	2.8213	3.1045	2.1119
47.48	2.8426	3.1423	2.1496
48.05	2.8631	3.1800	2.1874
48.61	2.8816	3.2180	2.2253
49.18	2.8989	3.2557	2.2631
49.74	2.9150	3.2935	2.3009
50.31	2.9285	3.3315	2.3389
50.87	2.8956	3.3694	2.3767
51.44	2.8889	3.4071	2.4144
52.01	2.9048	3.4449	2.4522
52.57	2.9270	3.4828	2.4902
53.14	2.9508	3.5205	2.5279
53.70	2.9741	3.5585	2.5659
54.27	2.9959	3.5962	2.6035
54.83	3.0177	3.6342	2.6415
55.40	3.0351	3.6719	2.6792
55.96	3.0497	3.7098	2.7172
56.53	3.0568	3.7476	2.7549
57.09	3.0725	3.7855	2.7929
57.66	3.0859	3.8233	2.8307
58.22	3.0993	3.8612	2.8685
58.79	3.1051	3.8989	2.9063
59.35	3.1153	3.9367	2.9441
59.92	3.1264	3.9745	2.9819
60.48	3.1378	4.0123	3.0197
61.05	3.1492	4.0503	3.0577
61.62	3.1586	4.0880	3.0954
62.18	3.1681	4.1259	3.1332
62.75	3.1771	4.1638	3.1712
63.31	3.1857	4.2017	3.2090
63.88	3.1961	4.2395	3.2469
64.44	3.2065	4.2772	3.2846
65.01	3.2176	4.3151	3.3224
65.57	3.2287	4.3529	3.3603
66.14	3.2372	4.3908	3.3982
66.70	3.2438	4.4285	3.4359
67.27	3.2474	4.4665	3.4738
67.83	3.2565	4.5043	3.5116
68.40	3.2657	4.5421	3.5495
68.96	3.2748	4.5800	3.5874
69.53	3.2827	4.6177	3.6251
70.09	3.2906	4.6556	3.6629
70.66	3.2991	4.6933	3.7007
71.22	3.3092	4.7312	3.7385
71.79	3.3194	4.7690	3.7764
72.36	3.3296	4.8069	3.8143
72.92	3.3398	4.8448	3.8522
73.49	3.3509	4.8825	3.8899
74.05	3.3620	4.9204	3.9277
74.62	3.3728	4.9582	3.9656
75.18	3.3827	4.9961	4.0034
75.75	3.3927	5.0340	4.0413
76.31	3.3967	5.0718	4.0791
76.88	3.3969	5.1097	4.1170
77.44	3.3972	5.1474	4.1548
78.01	3.4077	5.1852	4.1926
78.57	3.4199	5.2229	4.2303
79.14	3.4322	5.2609	4.2683
79.70	3.4465	5.2987	4.3061
80.27	3.4603	5.3366	4.3440
80.83	3.4728	5.3745	4.3819
81.40	3.4853	5.4122	4.4196
81.97	3.4615	5.4500	4.4574
82.53	3.4516	5.4879	4.4953
83.10	3.4603	5.5258	4.5332
83.66	3.4781	5.5635	4.5708
84.23	3.4912	5.6013	4.6087
84.79	3.5035	5.6393	4.6467
85.36	3.5125	5.6770	4.6844
85.92	3.5258	5.7149	4.7222
86.49	3.5387	5.7527	4.7601
87.05	3.5502	5.7906	4.7980
87.62	3.5616	5.8283	4.8357
88.18	3.5744	5.8663	4.8736
88.75	3.5875	5.9041	4.9115
89.31	3.5994	5.9420	4.9494
89.88	3.6104	5.9797	4.9870
90.44	3.6207	6.0176	5.0249
91.01	3.6320	6.0553	5.0627
91.57	3.6440	6.0933	5.1006
92.14	3.6560	6.1310	5.1383
92.71	3.6677	6.1689	5.1763
93.27	3.6794	6.2069	5.2142
93.84	3.6911	6.2446	5.2520
94.40	3.7021	6.2824	5.2898
94.97	3.7126	6.3202	5.3275
95.53	3.7232	6.3581	5.3655
96.10	3.7341	6.3958	5.4032
96.66	3.7451	6.4337	5.4411
97.23	3.7560	6.4716	5.4789
97.79	3.7661	6.5093	5.5167
98.36	3.7755	6.5473	5.5547
98.92	3.7849	6.5850	5.5923
99.49	3.7932	6.6228	5.6302
100.1	3.7986	6.6608	5.6682
100.6	3.8052	6.6986	5.7059
101.2	3.8159	6.7364	5.7438
101.7	3.8267	6.7741	5.7815
102.3	3.8374	6.8120	5.8193
102.9	3.8478	6.8500	5.8573
103.4	3.8581	6.8877	5.8951
104.0	3.8683	6.9255	5.9329
104.6	3.8769	6.9634	5.9708
105.1	3.8845	7.0013	6.0087
105.7	3.8954	7.0390	6.0463
106.3	3.9044	7.0769	6.0843
106.8	3.9137	7.1148	6.1222
107.4	3.9222	7.1526	6.1600
108.0	3.9297	7.1904	6.1978
108.5	3.9349	7.2282	6.2356
109.1	3.9394	7.2661	6.2735
109.7	3.9478	7.3039	6.3113
110.2	3.9551	7.3419	6.3493
110.8	3.9633	7.3795	6.3869
111.4	3.9682	7.4175	6.4248
111.9	3.9731	7.4552	6.4625
112.5		7.4932	6.5005