Folder: Root (part 4)

File: Fm2_25.txt
Time (s)	Load (N)	Extension (mm)	Deflection from Preload (mm)
0.0000
0.8069	0.0020720	0.019846	-0.80659
1.614	0.0098642	0.073920	-0.75252
2.421	0.019540	0.12785	-0.69858
3.227	0.028917	0.18181	-0.64462
4.034	0.043581	0.23580	-0.59064
4.841	0.058245	0.28986	-0.53658
5.648	0.081566	0.34386	-0.48257
6.455	0.10684	0.39784	-0.42859
7.262	0.13614	0.45184	-0.37460
8.069	0.17237	0.50583	-0.32061
8.876	0.21551	0.55984	-0.26659
9.682	0.26336	0.61376	-0.21267
10.49	0.31519	0.66781	-0.15862
11.30	0.37482	0.72188	-0.10456
12.10	0.43917	0.77577	-0.050661
12.91	0.50449	0.82994	0.0034994
13.72	0.57353	0.88389	0.057455
14.52	0.64875	0.93779	0.11135
15.33	0.71886	0.99189	0.16546
16.14	0.79146	1.0459	0.21949
16.94	0.86723	1.1000	0.27354
17.75	0.94082	1.1538	0.32740
18.56	1.0135	1.2080	0.38159
19.36	1.0802	1.2620	0.43554
20.17	1.1524	1.3159	0.48945
20.98	1.2187	1.3699	0.54346
21.79	1.2832	1.4239	0.59747
22.59	1.3454	1.4779	0.65146
23.40	1.4026	1.5318	0.70541
24.21	1.4596	1.5860	0.75959
25.01	1.5111	1.6399	0.81342
25.82	1.5639	1.6939	0.86748
26.63	1.6155	1.7480	0.92159
27.43	1.6672	1.8019	0.97550
28.24	1.7101	1.8560	1.0296
29.05	1.7526	1.9099	1.0834
29.85	1.7948	1.9639	1.1375
30.66	1.8350	2.0179	1.1915
31.47	1.8739	2.0719	1.2455
32.27	1.9098	2.1260	1.2995
33.08	1.9391	2.1799	1.3535
33.89	1.9429	2.2339	1.4074
34.70	1.9546	2.2878	1.4614
35.50	1.9777	2.3420	1.5156
36.31	2.0061	2.3959	1.5694
37.12	2.0372	2.4500	1.6236
37.92	2.0639	2.5040	1.6775
38.73	2.0861	2.5579	1.7315
39.54	2.1074	2.6121	1.7857
40.34	2.1276	2.6659	1.8395
41.15	2.1472	2.7200	1.8936
41.96	2.1575	2.7739	1.9475
42.76	2.1741	2.8279	2.0015
43.57	2.1862	2.8820	2.0555
44.38	2.1983	2.9361	2.1097
45.18	2.2078	2.9901	2.1637
45.99	2.2156	3.0440	2.2176
46.80	2.2231	3.0979	2.2715
47.61	2.2403	3.1521	2.3257
48.41	2.2534	3.2061	2.3796
49.22	2.2650	3.2600	2.4336
50.03	2.2743	3.3140	2.4875
50.83	2.2778	3.3681	2.5416
51.64	2.2832	3.4219	2.5955
52.45	2.2903	3.4761	2.6497
53.25	2.2974	3.5300	2.7035
54.06	2.3040	3.5841	2.7576
54.87	2.3153	3.6380	2.8115
55.67	2.3268	3.6921	2.8656
56.48	2.3425	3.7460	2.9196
57.29	2.3553	3.8001	2.9736
58.09	2.3682	3.8540	3.0275
58.90	2.3811	3.9079	3.0815
59.71	2.3956	3.9621	3.1357
60.51	2.4142	4.0159	3.1895
61.32	2.4282	4.0700	3.2436
62.13	2.4422	4.1241	3.2977
62.94	2.4532	4.1780	3.3516
63.74	2.4668	4.2321	3.4057
64.55	2.4802	4.2860	3.4595
65.36	2.4935	4.3400	3.5135
66.16	2.5091	4.3942	3.5677
66.97	2.5193	4.4480	3.6216
67.78	2.5275	4.5021	3.6756
68.58	2.5415	4.5560	3.7295
69.39	2.5497	4.6101	3.7837
70.20	2.5565	4.6640	3.8376
71.00	2.5652	4.7181	3.8916
71.81	2.5741	4.7720	3.9456
72.62	2.5839	4.8261	3.9996
73.42	2.5932	4.8799	4.0535
74.23	2.5963	4.9340	4.1076
75.04	2.5878	4.9881	4.1617
75.85	2.5714	5.0421	4.2157
76.65	2.5682	5.0961	4.2697
77.46	2.5738	5.1501	4.3236
78.27	2.5846	5.2041	4.3776
79.07	2.5944	5.2581	4.4316
79.88	2.6020	5.3121	4.4857
80.69	2.6076	5.3660	4.5396
81.49	2.6189	5.4200	4.5935
82.30	2.6349	5.4740	4.6476
83.11	2.6463	5.5281	4.7016
83.91	2.6633	5.5820	4.7556
84.72	2.6802	5.6360	4.8096
85.53	2.6950	5.6901	4.8637
86.33	2.7109	5.7441	4.9177
87.14	2.7268	5.7981	4.9717
87.95	2.7428	5.8520	5.0256
88.76	2.7581	5.9062	5.0797
89.56	2.7729	5.9601	5.1337
90.37	2.7883	6.0140	5.1876
91.18	2.8015	6.0681	5.2417
91.98	2.8152	6.1220	5.2956
92.79	2.8289	6.1761	5.3496
93.60	2.8363	6.2301	5.4037
94.40	2.8447	6.2842	5.4578
95.21	2.8554	6.3381	5.5117
96.02	2.8673	6.3921	5.5656
96.82	2.8791	6.4462	5.6197
97.63	2.8915	6.5000	5.6736
98.44	2.9043	6.5541	5.7277
99.24	2.9151	6.6080	5.7816
100.1	2.9258	6.6622	5.8357
100.9	2.9401	6.7162	5.8897
101.7	2.9542	6.7701	5.9437
102.5	2.9671	6.8241	5.9977
103.3	2.9789	6.8782	6.0518
104.1	2.9942	6.9321	6.1057
104.9	3.0058	6.9862	6.1598
105.7	3.0204	7.0401	6.2137
106.5	3.0356	7.0942	6.2677
107.3	3.0497	7.1481	6.3217
108.1	3.0637	7.2020	6.3756
108.9	3.0774	7.2561	6.4297
109.7	3.0911	7.3101	6.4837
110.5	3.1048	7.3641	6.5377
111.3	3.1203	7.4182	6.5918
112.2	3.1371	7.4722	6.6458
113.0	3.1506	7.5261	6.6996
113.8	3.1645	7.5802	6.7538
114.6	3.1810	7.6341	6.8077
115.4	3.1962	7.6881	6.8617
116.2	3.2124	7.7422	6.9158
117.0	3.2276	7.7961	6.9697
117.8	3.2470	7.8501	7.0237
118.6	3.2625	7.9041	7.0777
119.4	3.2780	7.9582	7.1317
120.2	3.2926	8.0123	7.1858
121.0	3.3062	8.0662	7.2398
121.8	3.3216	8.1202	7.2937
122.6	3.3404	8.1741	7.3477
123.5	3.3568	8.2283	7.4018
124.3	3.3729	8.2821	7.4557
125.1	3.3925	8.3361	7.5097
125.9	3.4056	8.3901	7.5637
126.7	3.4183	8.4441	7.6177
127.5	3.4163	8.4981	7.6716
128.3	3.4170	8.5522	7.7258
129.1	3.4300	8.6062	7.7798
129.9	3.4434	8.6603	7.8338
130.7	3.4554	8.7141	7.8877
131.5	3.4653	8.7682	7.9418
132.3	3.4698	8.8222	7.9957
133.1	3.4791	8.8763	8.0498
133.9	3.4884	8.9303	8.1038
134.7	3.4898	8.9843	8.1579
135.6	3.4928	9.0382	8.2117
136.4	3.5049	9.0922	8.2658
137.2	3.5209	9.1462	8.3197
138.0	3.5361	9.2001	8.3737
138.8	3.5512	9.2542	8.4278
139.6	3.5671	9.3082	8.4818
140.4	3.5829	9.3622	8.5358
141.2	3.5969	9.4162	8.5897
142.0	3.6101	9.4702	8.6438
142.8	3.6283	9.5241	8.6977
143.6	3.6416	9.5783	8.7518
144.4	3.6550	9.6323	8.8058
145.2	3.6684	9.6863	8.8599
146.0	3.6800	9.7403	8.9139
146.8	3.6948	9.7943	8.9679
147.7	3.7111	9.8482	9.0218
148.5	3.7270	9.9024	9.0759
149.3	3.7408	9.9563	9.1299
150.1	3.7547	10.010	9.1837
150.9	3.7707	10.064	9.2377
151.7	3.7866	10.118	9.2919
152.5	3.8068	10.172	9.3458
153.3	3.8252	10.226	9.3998
154.1	3.8438	10.280	9.4537
154.9	3.8573	10.334	9.5079
155.7	3.8653	10.388	9.5619
156.5	3.8795	10.442	9.6158
157.3	3.8979	10.496	9.6697
158.1	3.9150	10.550	9.7237
159.0	3.9322	10.604	9.7778
159.8	3.9493	10.658	9.8319
160.6		10.712	9.8858

File: Fm2_26.txt
Time (s)	Load (N)	Extension (mm)	Deflection from Preload (mm)
0.0000
0.4227	0.0011050	0.000038063	-0.95400
0.8454	0.0022126	0.023917	-0.93012
1.268	0.010153	0.052239	-0.90180
1.691	0.018949	0.080544	-0.87349
2.114	0.027182	0.10892	-0.84512
2.536	0.035415	0.13713	-0.81691
2.959	0.046067	0.16544	-0.78859
3.382	0.056931	0.19375	-0.76029
3.804	0.067795	0.22212	-0.73191
4.227	0.078659	0.25030	-0.70374
4.650	0.089524	0.27865	-0.67539
5.073	0.10051	0.30695	-0.64709
5.495	0.11412	0.33525	-0.61879
5.918	0.12773	0.36346	-0.59058
6.341	0.14135	0.39177	-0.56227
6.763	0.15496	0.42001	-0.53403
7.186	0.16932	0.44832	-0.50571
7.609	0.18459	0.47676	-0.47728
8.031	0.19986	0.50491	-0.44913
8.454	0.21513	0.53328	-0.42075
8.877	0.23232	0.56154	-0.39250
9.300	0.25000	0.58976	-0.36428
9.722	0.26768	0.61805	-0.33599
10.15	0.28536	0.64631	-0.30772
10.57	0.30474	0.67469	-0.27934
10.99	0.32440	0.70307	-0.25097
11.41	0.34407	0.73132	-0.22272
11.84	0.36426	0.75954	-0.19449
12.26	0.38485	0.78782	-0.16622
12.68	0.40544	0.81611	-0.13793
13.10	0.41839	0.84448	-0.10955
13.53	0.43665	0.87270	-0.081333
13.95	0.45842	0.90104	-0.052998
14.37	0.48038	0.92940	-0.024640
14.79	0.50285	0.95761	0.0035715
15.22	0.52532	0.98599	0.031957
15.64	0.54801	1.0142	0.060170
16.06	0.57206	1.0425	0.088451
16.49	0.59709	1.0707	0.11666
16.91	0.62181	1.0991	0.14504
17.33	0.64443	1.1274	0.17338
17.75	0.66569	1.1557	0.20162
18.18	0.68566	1.1839	0.22982
18.60	0.70682	1.2122	0.25820
19.02	0.72974	1.2405	0.28650
19.44	0.75576	1.2688	0.31472
19.87	0.78179	1.2972	0.34311
20.29	0.80782	1.3254	0.37138
20.71	0.83242	1.3537	0.39968
21.14	0.85804	1.3821	0.42802
21.56	0.88416	1.4103	0.45622
21.98	0.90591	1.4386	0.48453
22.40	0.91707	1.4668	0.51275
22.83	0.92669	1.4952	0.54118
23.25	0.95316	1.5234	0.56934
23.67	0.97962	1.5517	0.59763
24.09	0.99763	1.5801	0.62605
24.52	1.0171	1.6083	0.65422
24.94	1.0424	1.6366	0.68253
25.36	1.0678	1.6650	0.71091
25.79	1.0931	1.6932	0.73912
26.21	1.1166	1.7214	0.76739
26.63	1.1389	1.7497	0.79569
27.05	1.1618	1.7780	0.82400
27.48	1.1844	1.8063	0.85223
27.90	1.2048	1.8345	0.88051
28.32	1.2252	1.8629	0.90882
28.74	1.2360	1.8913	0.93724
29.17	1.2457	1.9196	0.96553
29.59	1.2583	1.9479	0.99383
30.01	1.2680	1.9762	1.0222
30.44	1.2852	2.0045	1.0505
30.86	1.3089	2.0327	1.0787
31.28	1.3286	2.0611	1.1070
31.70	1.3483	2.0893	1.1352
32.13	1.3671	2.1175	1.1634
32.55	1.3842	2.1458	1.1917
32.97	1.3976	2.1741	1.2200
33.39	1.4115	2.2024	1.2484
33.82	1.4268	2.2306	1.2766
34.24	1.4422	2.2590	1.3049
34.66	1.4576	2.2873	1.3333
35.08	1.4681	2.3156	1.3616
35.51	1.4745	2.3440	1.3899
35.93	1.4852	2.3721	1.4181
36.35	1.4958	2.4005	1.4465
36.78	1.5070	2.4289	1.4748
37.20	1.5191	2.4571	1.5031
37.62	1.5351	2.4854	1.5313
38.04	1.5462	2.5137	1.5597
38.47	1.5574	2.5420	1.5880
38.89	1.5651	2.5701	1.6161
39.31	1.5721	2.5984	1.6444
39.73	1.5825	2.6268	1.6728
40.16	1.5930	2.6551	1.7011
40.58	1.6035	2.6834	1.7294
41.00	1.6139	2.7117	1.7577
41.43	1.6242	2.7400	1.7860
41.85	1.6342	2.7683	1.8143
42.27	1.6441	2.7965	1.8424
42.69	1.6527	2.8248	1.8707
43.12	1.6607	2.8531	1.8990
43.54	1.6687	2.8815	1.9274
43.96	1.6766	2.9097	1.9557
44.38	1.6846	2.9380	1.9839
44.81	1.6923	2.9664	2.0124
45.23	1.6993	2.9946	2.0405
45.65	1.7062	3.0229	2.0688
46.08	1.7132	3.0511	2.0971
46.50	1.7220	3.0794	2.1254
46.92	1.7312	3.1076	2.1536
47.34	1.7402	3.1359	2.1819
47.77	1.7492	3.1644	2.2103
48.19	1.7573	3.1926	2.2386
48.61	1.7600	3.2209	2.2669
49.03	1.7691	3.2491	2.2951
49.46	1.7780	3.2774	2.3234
49.88	1.7855	3.3058	2.3517
50.30	1.7931	3.3340	2.3799
50.73	1.8006	3.3623	2.4082
51.15	1.8082	3.3907	2.4366
51.57	1.8157	3.4190	2.4649
51.99	1.8233	3.4471	2.4931
52.42	1.8308	3.4757	2.5216
52.84	1.8379	3.5038	2.5498
53.26	1.8446	3.5321	2.5780
53.68	1.8506	3.5603	2.6063
54.11	1.8556	3.5886	2.6345
54.53	1.8605	3.6170	2.6630
54.95	1.8655	3.6452	2.6912
55.37	1.8710	3.6735	2.7194
55.80	1.8765	3.7017	2.7477
56.22	1.8820	3.7300	2.7760
56.64	1.8875	3.7584	2.8044
57.07	1.8930	3.7868	2.8328
57.49	1.8985	3.8150	2.8609
57.91	1.9041	3.8433	2.8893
58.33	1.9097	3.8717	2.9176
58.76	1.9156	3.9000	2.9459
59.18	1.9212	3.9282	2.9742
59.60	1.9201	3.9565	3.0024
60.02	1.9249	3.9848	3.0307
60.45	1.9308	4.0130	3.0590
60.87	1.9368	4.0413	3.0873
61.29	1.9430	4.0696	3.1156
61.72	1.9493	4.0980	3.1440
62.14	1.9552	4.1262	3.1721
62.56	1.9609	4.1545	3.2005
62.98	1.9667	4.1829	3.2288
63.41	1.9724	4.2111	3.2570
63.83	1.9781	4.2394	3.2854
64.25	1.9838	4.2677	3.3137
64.67	1.9896	4.2959	3.3419
65.10	1.9956	4.3243	3.3702
65.52	2.0015	4.3525	3.3984
65.94	2.0074	4.3809	3.4269
66.37	2.0128	4.4093	3.4552
66.79	2.0179	4.4374	3.4834
67.21	2.0229	4.4658	3.5117
67.63	2.0279	4.4941	3.5400
68.06	2.0332	4.5222	3.5681
68.48	2.0385	4.5506	3.5966
68.90	2.0438	4.5789	3.6249
69.32	2.0489	4.6073	3.6532
69.75	2.0540	4.6354	3.6813
70.17	2.0592	4.6637	3.7096
70.59	2.0643	4.6920	3.7380
71.02	2.0687	4.7204	3.7664
71.44	2.0728	4.7487	3.7947
71.86	2.0770	4.7769	3.8229
72.28	2.0794	4.8052	3.8511
72.71	2.0817	4.8334	3.8794
73.13	2.0861	4.8619	3.9078
73.55	2.0905	4.8901	3.9361
73.97	2.0951	4.9184	3.9644
74.40	2.1002	4.9467	3.9927
74.82	2.1056	4.9749	4.0208
75.24	2.1113	5.0032	4.0491
75.66	2.1170	5.0317	4.0777
76.09	2.1227	5.0598	4.1057
76.51	2.1277	5.0880	4.1340
76.93	2.1325	5.1163	4.1623
77.36	2.1374	5.1447	4.1907
77.78	2.1423	5.1730	4.2190
78.20	2.1471	5.2012	4.2472
78.62	2.1477	5.2295	4.2755
79.05	2.1527	5.2579	4.3038
79.47	2.1576	5.2861	4.3320
79.89	2.1627	5.3143	4.3603
80.31	2.1680	5.3427	4.3887
80.74	2.1734	5.3709	4.4169
81.16	2.1788	5.3993	4.4453
81.58	2.1842	5.4276	4.4735
82.01	2.1895	5.4558	4.5018
82.43	2.1949	5.4842	4.5301
82.85	2.2003	5.5125	4.5584
83.27	2.2057	5.5407	4.5867
83.70	2.2110	5.5692	4.6151
84.12		5.5975	4.6434

File: Fm2_28.txt
Time (s)	Load (N)	Extension (mm)	Deflection from Preload (mm)
0.0000
0.8225	0.00070296	0.022097	-1.0647
1.645	0.014595	0.077221	-1.0096
2.468	0.028113	0.13232	-0.95448
3.290	0.040765	0.18731	-0.89949
4.113	0.055031	0.24221	-0.84459
4.935	0.074511	0.29743	-0.78937
5.758	0.090637	0.35241	-0.73439
6.580	0.10950	0.40752	-0.67928
7.403	0.12860	0.46250	-0.62430
8.225	0.15176	0.51764	-0.56917
9.048	0.17603	0.57253	-0.51427
9.870	0.20031	0.62779	-0.45901
10.69	0.22737	0.68262	-0.40418
11.52	0.25568	0.73776	-0.34904
12.34	0.28681	0.79277	-0.29404
13.16	0.31995	0.84797	-0.23884
13.98	0.35846	0.90289	-0.18391
14.81	0.39668	0.95806	-0.12874
15.63	0.43749	1.0130	-0.073814
16.45	0.48150	1.0681	-0.018750
17.27	0.53121	1.1232	0.036373
18.10	0.58135	1.1782	0.091371
18.92	0.63610	1.2332	0.14639
19.74	0.69318	1.2882	0.20137
20.56	0.75440	1.3434	0.25658
21.39	0.81714	1.3984	0.31157
22.21	0.88379	1.4533	0.36649
23.03	0.94779	1.5084	0.42156
23.85	1.0147	1.5637	0.47691
24.68	1.0849	1.6186	0.53184
25.50	1.1558	1.6737	0.58686
26.32	1.2278	1.7286	0.64180
27.14	1.3001	1.7838	0.69696
27.97	1.3672	1.8388	0.75195
28.79	1.4211	1.8937	0.80695
29.61	1.4944	1.9489	0.86211
30.43	1.5632	2.0040	0.91717
31.26	1.6367	2.0589	0.97211
32.08	1.7081	2.1139	1.0271
32.90	1.7794	2.1691	1.0823
33.72	1.8530	2.2242	1.1374
34.55	1.9161	2.2792	1.1924
35.37	1.9738	2.3342	1.2474
36.19	2.0424	2.3893	1.3025
37.01	2.1150	2.4443	1.3575
37.84	2.1899	2.4994	1.4126
38.66	2.2646	2.5543	1.4675
39.48	2.3178	2.6095	1.5227
40.30	2.3971	2.6645	1.5777
41.13	2.4710	2.7196	1.6328
41.95	2.5429	2.7746	1.6878
42.77	2.6120	2.8296	1.7428
43.59	2.6578	2.8846	1.7978
44.42	2.7260	2.9398	1.8530
45.24	2.7941	2.9948	1.9080
46.06	2.8627	3.0498	1.9630
46.88	2.9337	3.1050	2.0182
47.71	3.0074	3.1601	2.0733
48.53	3.0755	3.2150	2.1282
49.35	3.1430	3.2701	2.1833
50.17	3.2087	3.3250	2.2382
51.00	3.2736	3.3802	2.2934
51.82	3.3379	3.4351	2.3483
52.64	3.4014	3.4903	2.4035
53.46	3.4642	3.5452	2.4584
54.29	3.5223	3.6002	2.5134
55.11	3.5775	3.6553	2.5685
55.93	3.6360	3.7105	2.6237
56.75	3.6925	3.7654	2.6786
57.58	3.7475	3.8206	2.7338
58.40	3.8007	3.8755	2.7887
59.22	3.8460	3.9306	2.8438
60.04	3.8900	3.9858	2.8990
60.87	3.9271	4.0408	2.9540
61.69	3.9365	4.0958	3.0090
62.51	3.9764	4.1509	3.0641
63.33	4.0212	4.2059	3.1191
64.16	4.0689	4.2608	3.1740
64.98	4.1164	4.3160	3.2292
65.80	4.1524	4.3710	3.2842
66.62	4.1878	4.4261	3.3393
67.45	4.2257	4.4811	3.3943
68.27	4.2647	4.5361	3.4493
69.09	4.3004	4.5912	3.5044
69.91	4.3342	4.6462	3.5594
70.74	4.3712	4.7013	3.6145
71.56	4.4088	4.7563	3.6695
72.38	4.4417	4.8114	3.7246
73.20	4.4692	4.8665	3.7797
74.03	4.4956	4.9215	3.8347
74.85	4.5225	4.9767	3.8899
75.67	4.5522	5.0316	3.9448
76.49	4.5731	5.0867	3.9999
77.32	4.5939	5.1417	4.0549
78.14	4.6158	5.1969	4.1101
78.96	4.6375	5.2518	4.1650
79.78	4.6574	5.3068	4.2200
80.61	4.6840	5.3619	4.2751
81.43	4.7045	5.4169	4.3301
82.25	4.7255	5.4720	4.3852
83.07	4.7529	5.5270	4.4402
83.90	4.7750	5.5821	4.4953
84.72	4.7894	5.6371	4.5503
85.54	4.8091	5.6922	4.6054
86.36	4.8358	5.7473	4.6605
87.19	4.8589	5.8024	4.7156
88.01	4.8821	5.8573	4.7705
88.83	4.9080	5.9123	4.8255
89.65	4.9280	5.9674	4.8806
90.48	4.9533	6.0224	4.9356
91.30	4.9787	6.0774	4.9906
92.12	5.0042	6.1326	5.0458
92.94	5.0273	6.1876	5.1008
93.77	5.0536	6.2426	5.1558
94.59	5.0727	6.2976	5.2108
95.41	5.0929	6.3528	5.2660
96.23	5.1168	6.4077	5.3209
97.06	5.1424	6.4629	5.3761
97.88	5.1634	6.5179	5.4311
98.70	5.1860	6.5729	5.4861
99.52	5.2071	6.6279	5.5411
100.3	5.2259	6.6830	5.5962
101.2	5.2469	6.7382	5.6514
102.0	5.2687	6.7932	5.7064
102.8	5.2891	6.8483	5.7615
103.6	5.3099	6.9032	5.8164
104.5	5.3278	6.9583	5.8715
105.3	5.3452	7.0133	5.9265
106.1	5.3622	7.0685	5.9817
106.9	5.3807	7.1234	6.0366
107.7	5.3982	7.1786	6.0918
108.6	5.4174	7.2336	6.1468
109.4	5.4365	7.2885	6.2017
110.2	5.4530	7.3436	6.2568
111.0	5.4684	7.3986	6.3118
111.9	5.4872	7.4537	6.3669
112.7	5.5058	7.5087	6.4219
113.5	5.5218	7.5639	6.4771
114.3	5.5393	7.6189	6.5321
115.2	5.5587	7.6740	6.5872
116.0	5.5757	7.7291	6.6423
116.8	5.5927	7.7840	6.6972
117.6	5.6031	7.8391	6.7523
118.4	5.6164	7.8941	6.8073
119.3	5.6324	7.9491	6.8623
120.1	5.6457	8.0042	6.9174
120.9	5.6636	8.0592	6.9724
121.7	5.6788	8.1142	7.0274
122.6	5.6999	8.1694	7.0826
123.4	5.7141	8.2245	7.1377
124.2	5.7261	8.2795	7.1927
125.0	5.7405	8.3345	7.2477
125.8	5.7542	8.3894	7.3026
126.7	5.7710	8.4447	7.3579
127.5	5.7824	8.4996	7.4128
128.3	5.7921	8.5547	7.4679
129.1	5.8110	8.6098	7.5230
130.0	5.8282	8.6647	7.5779
130.8	5.8426	8.7199	7.6331
131.6	5.8623	8.7748	7.6880
132.4	5.8785	8.8300	7.7432
133.2	5.8935	8.8850	7.7982
134.1	5.9079	8.9401	7.8533
134.9	5.9262	8.9951	7.9083
135.7	5.9410	9.0502	7.9634
136.5	5.9563	9.1051	8.0183
137.4	5.9737	9.1603	8.0735
138.2	5.9907	9.2153	8.1285
139.0	6.0084	9.2704	8.1836
139.8	6.0255	9.3253	8.2385
140.6	6.0452	9.3805	8.2937
141.5	6.0621	9.4356	8.3488
142.3	6.0804	9.4905	8.4037
143.1	6.0982	9.5456	8.4588
143.9	6.1136	9.6007	8.5139
144.8	6.1275	9.6557	8.5689
145.6	6.1502	9.7107	8.6239
146.4	6.1692	9.7659	8.6791
147.2	6.1882	9.8209	8.7341
148.1	6.2085	9.8759	8.7891
148.9	6.2272	9.9309	8.8441
149.7	6.2474	9.9861	8.8993
150.5	6.2661	10.041	8.9542
151.3	6.2813	10.096	9.0094
152.2	6.2976	10.151	9.0643
153.0	6.3162	10.206	9.1194
153.8	6.3337	10.261	9.1744
154.6	6.3490	10.316	9.2296
155.5	6.3647	10.371	9.2845
156.3	6.3816	10.426	9.3397
157.1	6.3999	10.481	9.3946
157.9	6.4146	10.536	9.4497
158.7	6.4305	10.592	9.5048
159.6	6.4495	10.646	9.5597
160.4	6.4691	10.702	9.6148
161.2	6.4884	10.757	9.6699
162.0	6.5020	10.812	9.7248
162.9	6.5182	10.867	9.7800
163.7		10.922	9.8349

File: Fm2_31.txt
Time (s)	Load (N)	Extension (mm)	Deflection from Preload (mm)
0.0000
0.6727	0.0056727	0.013627	-0.31553
1.345	0.060148	0.058703	-0.27045
2.018	0.11893	0.10360	-0.22556
2.691	0.18104	0.14880	-0.18036
3.364	0.25072	0.19360	-0.13555
4.036	0.32846	0.23873	-0.090425
4.709	0.41054	0.28386	-0.045296
5.382	0.49915	0.32874	-0.00041978
6.054	0.58794	0.37380	0.044640
6.727	0.67324	0.41879	0.089639
7.400	0.76342	0.46378	0.13463
8.073	0.85359	0.50893	0.17977
8.745	0.94376	0.55384	0.22468
9.418	1.0336	0.59904	0.26988
10.09	1.1196	0.64399	0.31484
10.76	1.1970	0.68889	0.35974
11.44	1.2674	0.73411	0.40496
12.11	1.3486	0.77913	0.44997
12.78	1.4301	0.82400	0.49484
13.45	1.5114	0.86910	0.53995
14.13	1.5457	0.91396	0.58480
14.80	1.6124	0.95921	0.63005
15.47	1.6798	1.0041	0.67490
16.15	1.7569	1.0492	0.72009
16.82	1.8276	1.0943	0.76512
17.49	1.8958	1.1393	0.81014
18.16	1.9643	1.1842	0.85507
18.84	2.0335	1.2293	0.90015
19.51	2.1004	1.2744	0.94522
20.18	2.1638	1.3193	0.99016
20.85	2.2290	1.3642	1.0351
21.53	2.2945	1.4095	1.0803
22.20	2.3586	1.4544	1.1252
22.87	2.4241	1.4994	1.1703
23.54	2.4889	1.5444	1.2152
24.22	2.5522	1.5895	1.2603
24.89	2.6149	1.6344	1.3053
25.56	2.6715	1.6794	1.3503
26.24	2.7297	1.7247	1.3955
26.91	2.7868	1.7696	1.4404
27.58	2.8402	1.8146	1.4855
28.25	2.8903	1.8597	1.5305
28.93	2.9363	1.9047	1.5755
29.60	2.9831	1.9496	1.6205
30.27	3.0269	1.9947	1.6655
30.94	3.0660	2.0397	1.7105
31.62	3.1067	2.0847	1.7555
32.29	3.1501	2.1298	1.8006
32.96	3.1940	2.1747	1.8455
33.64	3.2339	2.2198	1.8907
34.31	3.2734	2.2647	1.9356
34.98	3.3133	2.3099	1.9807
35.65	3.3477	2.3548	2.0256
36.33	3.3815	2.3998	2.0707
37.00	3.4154	2.4448	2.1157
37.67	3.4471	2.4899	2.1607
38.34	3.4793	2.5350	2.2058
39.02	3.5090	2.5799	2.2508
39.69	3.5416	2.6250	2.2958
40.36	3.5736	2.6701	2.3410
41.04	3.6014	2.7151	2.3859
41.71	3.6302	2.7600	2.4308
42.38	3.6526	2.8051	2.4759
43.05	3.6427	2.8501	2.5209
43.73	3.6535	2.8950	2.5659
44.40	3.6759	2.9402	2.6110
45.07	3.6999	2.9851	2.6560
45.74	3.6911	3.0302	2.7010
46.42	3.7143	3.0753	2.7461
47.09	3.7380	3.1203	2.7912
47.76	3.7623	3.1652	2.8360
48.44	3.7849	3.2102	2.8810
49.11	3.8122	3.2553	2.9261
49.78	3.8361	3.3003	2.9711
50.45	3.8571	3.3454	3.0163
51.13	3.8781	3.3903	3.0612
51.80	3.8993	3.4355	3.1063
52.47	3.9202	3.4804	3.1513
53.14	3.9391	3.5254	3.1963
53.82	3.9532	3.5704	3.2413
54.49	3.9705	3.6155	3.2863
55.16	3.9879	3.6604	3.3313
55.83	4.0029	3.7056	3.3764
56.51	4.0133	3.7506	3.4214
57.18	4.0270	3.7955	3.4663
57.85	4.0406	3.8407	3.5115
58.53	4.0536	3.8856	3.5564
59.20	4.0640	3.9306	3.6014
59.87	4.0693	3.9758	3.6466
60.54	4.0825	4.0207	3.6916
61.22	4.0952	4.0657	3.7365
61.89	4.1082	4.1107	3.7815
62.56	4.1225	4.1558	3.8267
63.23	4.1378	4.2007	3.8716
63.91	4.1485	4.2459	3.9167
64.58	4.1578	4.2908	3.9617
65.25	4.1715	4.3359	4.0067
65.93	4.1849	4.3809	4.0518
66.60	4.1988	4.4259	4.0967
67.27	4.2131	4.4710	4.1418
67.94	4.2271	4.5159	4.1868
68.62	4.2300	4.5609	4.2318
69.29	4.2256	4.6060	4.2769
69.96	4.2309	4.6509	4.3218
70.63	4.2418	4.6960	4.3669
71.31	4.2514	4.7410	4.4118
71.98	4.2599	4.7861	4.4570
72.65	4.2682	4.8311	4.5020
73.33	4.2777	4.8762	4.5470
74.00	4.2884	4.9211	4.5919
74.67	4.2961	4.9661	4.6370
75.34	4.3043	5.0111	4.6819
76.02	4.3146	5.0563	4.7271
76.69	4.3258	5.1013	4.7721
77.36	4.3371	5.1463	4.8172
78.03	4.3490	5.1913	4.8622
78.71	4.3581	5.2364	4.9072
79.38	4.3678	5.2813	4.9522
80.05	4.3774	5.3263	4.9972
80.73	4.3917	5.3714	5.0423
81.40	4.4048	5.4165	5.0873
82.07	4.4142	5.4614	5.1323
82.74	4.3713	5.5064	5.1773
83.42	4.3633	5.5515	5.2223
84.09	4.3723	5.5964	5.2672
84.76	4.3824	5.6414	5.3122
85.43	4.3972	5.6865	5.3574
86.11	4.4154	5.7316	5.4024
86.78	4.4301	5.7767	5.4475
87.45	4.4448	5.8217	5.4925
88.12	4.4594	5.8666	5.5375
88.80	4.4720	5.9116	5.5824
89.47	4.4790	5.9566	5.6275
90.14	4.4881	6.0018	5.6726
90.82	4.4903	6.0466	5.7175
91.49	4.4843	6.0918	5.7626
92.16	4.4832	6.1368	5.8076
92.83	4.4869	6.1819	5.8527
93.51	4.5012	6.2268	5.8977
94.18	4.5192	6.2719	5.9428
94.85	4.5378	6.3168	5.9877
95.52	4.5579	6.3618	6.0327
96.20	4.5780	6.4068	6.0777
96.87	4.5942	6.4520	6.1228
97.54	4.6160	6.4969	6.1677
98.22	4.6332	6.5419	6.2127
98.89	4.6515	6.5870	6.2579
99.56	4.6691	6.6321	6.3029
100.2	4.6859	6.6770	6.3479
100.9	4.7034	6.7220	6.3928
101.6	4.7173	6.7671	6.4379
102.3	4.7338	6.8120	6.4829
102.9	4.7512	6.8572	6.5280
103.6	4.7668	6.9022	6.5730
104.3	4.7832	6.9471	6.6180
104.9	4.7980	6.9921	6.6630
105.6	4.8113	7.0372	6.7081
106.3	4.8272	7.0823	6.7532
107.0	4.8452	7.1273	6.7981
107.6	4.8618	7.1723	6.8431
108.3	4.8784	7.2173	6.8882
109.0	4.8956	7.2624	6.9333
109.7	4.9133	7.3074	6.9783
110.3	4.9313	7.3525	7.0233
111.0	4.9477	7.3975	7.0683
111.7	4.9653	7.4425	7.1133
112.3	4.9828	7.4874	7.1583
113.0	5.0005	7.5326	7.2034
113.7	5.0202	7.5775	7.2483
114.4	5.0399	7.6225	7.2934
115.0	5.0596	7.6675	7.3383
115.7	5.0782	7.7126	7.3834
116.4	5.0967	7.7575	7.4284
117.1	5.1151	7.8026	7.4734
117.7	5.1336	7.8476	7.5184
118.4	5.1492	7.8927	7.5636
119.1	5.1674	7.9377	7.6086
119.7	5.1852	7.9827	7.6535
120.4	5.2031	8.0278	7.6986
121.1	5.2209	8.0729	7.7437
121.8	5.2399	8.1178	7.7887
122.4	5.2545	8.1627	7.8336
123.1	5.2715	8.2079	7.8787
123.8	5.2884	8.2529	7.9238
124.5	5.3090	8.2978	7.9687
125.1	5.3273	8.3430	8.0138
125.8	5.3456	8.3880	8.0589
126.5	5.3670	8.4330	8.1039
127.1	5.3866	8.4779	8.1488
127.8	5.4057	8.5230	8.1939
128.5	5.4219	8.5680	8.2389
129.2	5.4395	8.6130	8.2838
129.8	5.4641	8.6580	8.3288
130.5	5.4849	8.7031	8.3739
131.2	5.5054	8.7482	8.4190
131.9	5.5237	8.7931	8.4640
132.5	5.5433	8.8381	8.5089
133.2	5.5617	8.8831	8.5540
133.9	0.076294