Folder: Root (part 2)

File: Fm2_14.txt
Time (s)	Load (N)	Extension (mm)	Deflection from Preload (mm)
0.0000
0.5277	0.0019073	0.0012936	-0.46465
1.055	0.020375	0.036306	-0.42964
1.583	0.047330	0.071751	-0.39420
2.111	0.078586	0.10701	-0.35893
2.639	0.11270	0.14240	-0.32354
3.166	0.14880	0.17761	-0.28834
3.694	0.19184	0.21306	-0.25289
4.222	0.23334	0.24829	-0.21765
4.750	0.27541	0.28359	-0.18235
5.277	0.31747	0.31892	-0.14703
5.805	0.36048	0.35420	-0.11175
6.333	0.40464	0.38957	-0.076382
6.860	0.44884	0.42496	-0.040983
7.388	0.49339	0.46015	-0.0058024
7.916	0.53486	0.49549	0.029543
8.444	0.57817	0.53082	0.064874
8.971	0.62015	0.56618	0.10023
9.499	0.66138	0.60157	0.13562
10.03	0.69836	0.63684	0.17089
10.55	0.74188	0.67201	0.20606
11.08	0.78281	0.70738	0.24143
11.61	0.82130	0.74277	0.27683
12.14	0.85937	0.77828	0.31233
12.67	0.89652	0.81346	0.34751
13.19	0.93265	0.84876	0.38281
13.72	0.96900	0.88400	0.41805
14.25	1.0055	0.91940	0.45345
14.78	1.0408	0.95476	0.48881
15.30	1.0759	0.99008	0.52413
15.83	1.1109	1.0254	0.55945
16.36	1.1458	1.0607	0.59473
16.89	1.1770	1.0961	0.63010
17.41	1.2114	1.1312	0.66530
17.94	1.2453	1.1666	0.70066
18.47	1.2795	1.2019	0.73596
19.00	1.3140	1.2371	0.77119
19.53	1.3468	1.2726	0.80666
20.05	1.3793	1.3080	0.84201
20.58	1.4099	1.3432	0.87726
21.11	1.4431	1.3785	0.91260
21.64	1.4764	1.4138	0.94783
22.16	1.5080	1.4492	0.98328
22.69	1.5396	1.4846	1.0186
23.22	1.5714	1.5199	1.0539
23.75	1.6048	1.5550	1.0891
24.28	1.6381	1.5906	1.1246
24.80	1.6714	1.6257	1.1598
25.33	1.7012	1.6611	1.1952
25.86	1.7370	1.6963	1.2304
26.39	1.7691	1.7318	1.2659
26.91	1.8018	1.7670	1.3011
27.44	1.8351	1.8023	1.3363
27.97	1.8670	1.8376	1.3717
28.50	1.8989	1.8731	1.4071
29.02	1.9308	1.9084	1.4424
29.55	1.9629	1.9436	1.4776
30.08	1.9953	1.9790	1.5130
30.61	2.0277	2.0142	1.5483
31.14	2.0601	2.0496	1.5836
31.66	2.0943	2.0850	1.6190
32.19	2.1284	2.1203	1.6544
32.72	2.1611	2.1556	1.6897
33.25	2.1939	2.1909	1.7250
33.77	2.2270	2.2261	1.7602
34.30	2.2602	2.2616	1.7956
34.83	2.2933	2.2969	1.8309
35.36	2.3265	2.3321	1.8661
35.89	2.3591	2.3674	1.9015
36.41	2.3912	2.4029	1.9369
36.94	2.4238	2.4382	1.9723
37.47	2.4568	2.4734	2.0074
38.00	2.4898	2.5088	2.0429
38.52	2.5221	2.5440	2.0780
39.05	2.5550	2.5794	2.1134
39.58	2.5878	2.6147	2.1488
40.11	2.6218	2.6499	2.1840
40.63	2.6547	2.6854	2.2194
41.16	2.6849	2.7206	2.2547
41.69	2.7166	2.7561	2.2901
42.22	2.7498	2.7914	2.3254
42.75	2.7839	2.8266	2.3607
43.27	2.8162	2.8619	2.3959
43.80	2.8463	2.8972	2.4313
44.33	2.8762	2.9326	2.4666
44.86	2.9073	2.9680	2.5021
45.38	2.9421	3.0032	2.5373
45.91	2.9759	3.0385	2.5725
46.44	3.0071	3.0738	2.6079
46.97	3.0383	3.1092	2.6432
47.50	3.0698	3.1446	2.6786
48.02	3.1022	3.1799	2.7139
48.55	3.1303	3.2151	2.7492
49.08	3.1622	3.2504	2.7845
49.61	3.1961	3.2858	2.8199
50.13	3.2264	3.3212	2.8553
50.66	3.2573	3.3565	2.8906
51.19	3.2882	3.3918	2.9259
51.72	3.3195	3.4271	2.9612
52.24	3.3517	3.4624	2.9965
52.77	3.3845	3.4976	3.0317
53.30	3.4170	3.5330	3.0670
53.83	3.4443	3.5684	3.1024
54.36	3.4726	3.6036	3.1377
54.88	3.5037	3.6389	3.1730
55.41	3.5345	3.6744	3.2084
55.94	3.5633	3.7097	3.2438
56.47	3.5911	3.7449	3.2790
56.99	3.6189	3.7802	3.3142
57.52	3.6465	3.8157	3.3497
58.05	3.6723	3.8510	3.3851
58.58	3.6982	3.8862	3.4203
59.11	3.7249	3.9216	3.4556
59.63	3.7505	3.9569	3.4910
60.16	3.7761	3.9922	3.5262
60.69	3.8008	4.0276	3.5616
61.22	3.8236	4.0628	3.5969
61.74	3.8464	4.0982	3.6323
62.27	3.8690	4.1335	3.6675
62.80	3.8917	4.1688	3.7029
63.33	3.9088	4.2041	3.7382
63.85	3.9283	4.2394	3.7734
64.38	3.9471	4.2748	3.8088
64.91	3.9657	4.3101	3.8442
65.44	3.9834	4.3453	3.8794
65.97	3.9991	4.3807	3.9148
66.49	4.0127	4.4160	3.9500
67.02	4.0251	4.4512	3.9853
67.55	4.0415	4.4867	4.0207
68.08	4.0578	4.5220	4.0560
68.60	4.0742	4.5575	4.0915
69.13	4.0885	4.5926	4.1267
69.66	4.1018	4.6280	4.1620
70.19	4.1153	4.6632	4.1972
70.72	4.1311	4.6986	4.2326
71.24	4.1461	4.7340	4.2681
71.77	4.1595	4.7693	4.3033
72.30	4.1729	4.8046	4.3386
72.83	4.1863	4.8398	4.3738
73.35	4.1990	4.8752	4.4092
73.88	4.2116	4.9106	4.4446
74.41	4.2243	4.9458	4.4799
74.94	4.2381	4.9811	4.5151
75.46	4.2526	5.0165	4.5506
75.99	4.2659	5.0518	4.5859
76.52	4.2790	5.0871	4.6211
77.05	4.2923	5.1223	4.6563
77.58	4.3062	5.1577	4.6918
78.10	4.3202	5.1930	4.7271
78.63	4.3341	5.2284	4.7624
79.16	4.3463	5.2638	4.7979
79.69	4.3572	5.2990	4.8331
80.21	4.3718	5.3344	4.8685
80.74	4.3865	5.3696	4.9036
81.27	4.4003	5.4051	4.9391
81.80	4.4122	5.4404	4.9744
82.33	4.4250	5.4755	5.0096
82.85	4.4382	5.5109	5.0450
83.38	4.4522	5.5464	5.0804
83.91	4.4661	5.5817	5.1157
84.44	4.4801	5.6170	5.1510
84.96	4.4941	5.6522	5.1862
85.49	4.5080	5.6876	5.2217
86.02	4.5220	5.7229	5.2569
86.55	4.5359	5.7581	5.2922
87.07	4.5499	5.7935	5.3276
87.60	4.5647	5.8288	5.3628
88.13	4.5796	5.8642	5.3982
88.66	4.5945	5.8995	5.4336
89.19	4.6097	5.9349	5.4689
89.71	4.6244	5.9700	5.5041
90.24	4.6376	6.0055	5.5395
90.77	4.6507	6.0408	5.5749
91.30	4.6637	6.0760	5.6100
91.82	4.6766	6.1115	5.6455
92.35	4.6894	6.1467	5.6807
92.88	4.7032	6.1819	5.7160
93.41	4.7190	6.2173	5.7513
93.94	4.7349	6.2527	5.7867
94.46	4.7496	6.2879	5.8220
94.99	4.7629	6.3233	5.8574
95.52	4.7806	6.3585	5.8926
96.05	4.7982	6.3939	5.9280
96.57	4.8146	6.4292	5.9632
97.10	4.8286	6.4645	5.9986
97.63	4.8426	6.4998	6.0338
98.16	4.8566	6.5352	6.0693
98.68	4.8734	6.5706	6.1047
99.21	4.8901	6.6058	6.1398
99.74	4.9058	6.6411	6.1752
100.3	4.9214	6.6765	6.2106
100.8	4.9373	6.7118	6.2458
101.3	4.9528	6.7472	6.2812
101.9	4.9675	6.7825	6.3166
102.4	4.9823	6.8178	6.3519
102.9	4.9971	6.8532	6.3873
103.4	5.0119	6.8885	6.4225
104.0	5.0279	6.9237	6.4577
104.5	5.0406	6.9590	6.4931
105.0		6.9943	6.5284

File: Fm2_16.txt
Time (s)	Load (N)	Extension (mm)	Deflection from Preload (mm)
0.0000
0.8176	0.015969	0.021319	-0.35740
1.635	0.081751	0.076097	-0.30262
2.453	0.14805	0.13087	-0.24785
3.270	0.21000	0.18564	-0.19308
4.088	0.28705	0.24025	-0.13847
4.906	0.36709	0.29504	-0.083679
5.723	0.45107	0.34985	-0.028876
6.541	0.54278	0.40448	0.025761
7.358	0.63422	0.45917	0.080449
8.176	0.73040	0.51376	0.13504
8.994	0.82661	0.56848	0.18976
9.811	0.92531	0.62335	0.24463
10.63	1.0253	0.67807	0.29935
11.45	1.1273	0.73270	0.35398
12.26	1.2330	0.78742	0.40869
13.08	1.3373	0.84224	0.46351
13.90	1.4434	0.89688	0.51816
14.72	1.5500	0.95155	0.57282
15.53	1.6502	1.0065	0.62775
16.35	1.7532	1.0611	0.68238
17.17	1.8386	1.1157	0.73702
17.99	1.9050	1.1706	0.79186
18.80	2.0062	1.2251	0.84640
19.62	2.1070	1.2799	0.90119
20.44	2.1226	1.3347	0.95601
21.26	2.2232	1.3895	1.0107
22.08	2.3196	1.4441	1.0654
22.89	2.4092	1.4989	1.1202
23.71	2.4815	1.5536	1.1749
24.53	2.5516	1.6083	1.2296
25.35	2.6292	1.6631	1.2844
26.16	2.7059	1.7176	1.3389
26.98	2.7809	1.7724	1.3937
27.80	2.8507	1.8272	1.4485
28.62	2.9054	1.8819	1.5032
29.43	2.9616	1.9367	1.5579
30.25	2.9627	1.9913	1.6126
31.07	3.0252	2.0461	1.6673
31.89	3.0859	2.1007	1.7220
32.70	3.1425	2.1554	1.7767
33.52	3.1930	2.2103	1.8316
34.34	3.2421	2.2650	1.8863
35.16	3.2889	2.3196	1.9409
35.97	3.3345	2.3744	1.9957
36.79	3.3790	2.4291	2.0504
37.61	3.4217	2.4839	2.1051
38.43	3.4616	2.5385	2.1598
39.25	3.4984	2.5933	2.2146
40.06	3.4947	2.6480	2.2693
40.88	3.5243	2.7028	2.3241
41.70	3.5580	2.7574	2.3787
42.52	3.5959	2.8122	2.4335
43.33	3.6262	2.8668	2.4881
44.15	3.6332	2.9216	2.5429
44.97	3.6398	2.9762	2.5975
45.79	3.6662	3.0309	2.6522
46.60	3.6994	3.0857	2.7070
47.42	3.7260	3.1404	2.7617
48.24	3.7510	3.1952	2.8165
49.06	3.7727	3.2498	2.8711
49.87	3.7992	3.3047	2.9260
50.69	3.8285	3.3594	2.9807
51.51	3.8516	3.4140	3.0353
52.33	3.8763	3.4689	3.0901
53.14	3.8975	3.5235	3.1448
53.96	3.9159	3.5782	3.1995
54.78	3.9348	3.6330	3.2543
55.60	3.9519	3.6876	3.3089
56.41	3.9690	3.7425	3.3638
57.23	3.9940	3.7971	3.4183
58.05	4.0127	3.8519	3.4732
58.87	4.0274	3.9065	3.5277
59.69	4.0380	3.9614	3.5827
60.50	4.0499	4.0161	3.6374
61.32	4.0631	4.0707	3.6920
62.14	4.0749	4.1254	3.7467
62.96	4.0881	4.1801	3.8014
63.77	4.1058	4.2348	3.8561
64.59	4.1176	4.2896	3.9109
65.41	4.1296	4.3443	3.9656
66.23	4.1442	4.3991	4.0204
67.04	4.1572	4.4538	4.0751
67.86	4.1653	4.5084	4.1297
68.68	4.1691	4.5634	4.1846
69.50	4.1766	4.6179	4.2392
70.31	4.1894	4.6726	4.2939
71.13	4.2053	4.7275	4.3488
71.95	4.2207	4.7820	4.4033
72.77	4.2443	4.8368	4.4581
73.58	4.2640	4.8915	4.5128
74.40	4.2835	4.9463	4.5676
75.22	4.3029	5.0011	4.6223
76.04	4.3235	5.0558	4.6770
76.86	4.3452	5.1104	4.7316
77.67	4.3615	5.1652	4.7865
78.49	4.3767	5.2199	4.8412
79.31	4.3921	5.2746	4.8959
80.13	4.4074	5.3292	4.9505
80.94	4.4224	5.3840	5.0053
81.76	4.4334	5.4388	5.0600
82.58	4.4416	5.4935	5.1148
83.40	4.4461	5.5481	5.1694
84.21	4.4376	5.6029	5.2242
85.03	4.4403	5.6575	5.2788
85.85	4.4518	5.7124	5.3337
86.67	4.4630	5.7670	5.3883
87.48	4.4749	5.8219	5.4432
88.30	4.4785	5.8765	5.4977
89.12	4.4793	5.9312	5.5525
89.94	4.4907	5.9860	5.6073
90.75	4.5109	6.0405	5.6618
91.57	4.5315	6.0954	5.7166
92.39	4.5515	6.1500	5.7713
93.21	4.5724	6.2050	5.8262
94.02	4.5960	6.2596	5.8808
94.84	4.6190	6.3143	5.9356
95.66	4.6406	6.3690	5.9902
96.48	4.6641	6.4238	6.0451
97.30	4.6856	6.4784	6.0997
98.11	4.7042	6.5333	6.1545
98.93	4.7219	6.5879	6.2092
99.75	4.7392	6.6426	6.2639
100.6	4.7583	6.6974	6.3187
101.4	4.7789	6.7520	6.3732
102.2	4.7983	6.8068	6.4281
103.0	4.8135	6.8616	6.4829
103.8	4.8314	6.9161	6.5374
104.7	4.8483	6.9710	6.5922
105.5	4.8649	7.0256	6.6469
106.3	4.8817	7.0804	6.7016
107.1	4.8985	7.1352	6.7564
107.9	4.9153	7.1899	6.8112
108.7	4.9332	7.2445	6.8658
109.6	4.9519	7.2992	6.9205
110.4	4.9678	7.3539	6.9752
111.2	4.9841	7.4088	7.0301
112.0	5.0009	7.4634	7.0847
112.8	5.0169	7.5182	7.1395
113.6	5.0293	7.5730	7.1943
114.5	5.0461	7.6275	7.2488
115.3	5.0626	7.6823	7.3036
116.1	5.0791	7.7370	7.3583
116.9	5.0958	7.7917	7.4129
117.7	5.1156	7.8465	7.4678
118.6	5.1405	7.9011	7.5224
119.4	5.1655	7.9559	7.5772
120.2	5.1905	8.0107	7.6319
121.0	5.2082	8.0654	7.6866
121.8	5.2317	8.1201	7.7414
122.6	5.2571	8.1748	7.7961
123.5	5.2757	8.2295	7.8507
124.3	5.2987	8.2844	7.9057
125.1	5.3232	8.3390	7.9603
125.9	5.3456	8.3936	8.0149
126.7	5.3687	8.4485	8.0697
127.5	5.3941	8.5030	8.1243
128.4	5.4142	8.5579	8.1792
129.2	5.4331	8.6126	8.2339
130.0	5.4565	8.6673	8.2886
130.8	5.4765	8.7220	8.3433
131.6	5.4937	8.7766	8.3979
132.5	5.5117	8.8314	8.4527
133.3	5.5305	8.8863	8.5075
134.1	5.5484	8.9410	8.5623
134.9	5.5662	8.9956	8.6168
135.7	5.5833	9.0503	8.6716
136.5	5.5834	9.1051	8.7264
137.4	5.5897	9.1598	8.7810
138.2	5.5960	9.2146	8.8359
139.0	5.6020	9.2692	8.8905
139.8	5.6083	9.3239	8.9452
140.6	5.6189	9.3787	9.0000
141.4	5.6345	9.4334	9.0547
142.3	5.6566	9.4881	9.1094
143.1	5.6773	9.5427	9.1640
143.9	5.6969	9.5976	9.2189
144.7	5.7194	9.6523	9.2736
145.5	5.7449	9.7069	9.3282
146.4	5.7682	9.7617	9.3830
147.2	5.7930	9.8163	9.4376
148.0	5.8247	9.8711	9.4924
148.8	5.8454	9.9259	9.5472
149.6	5.8732	9.9807	9.6020
150.4	5.8973	10.035	9.6566
151.3	5.9197	10.090	9.7114
152.1	5.9456	10.145	9.7660
152.9	5.9721	10.200	9.8209
153.7	5.9952	10.254	9.8755
154.5	6.0146	10.309	9.9301
155.3	6.0363	10.364	9.9850
156.2	6.0566	10.418	10.040
157.0	6.0759	10.473	10.094
157.8	6.0928	10.528	10.149
158.6	6.1085	10.583	10.204
159.4	6.1245	10.637	10.259
160.3	6.1428	10.692	10.313
161.1	6.1604	10.747	10.368
161.9	6.1779	10.801	10.423
162.7		10.856	10.477

File: Fm2_18.txt
Time (s)	Load (N)	Extension (mm)	Deflection from Preload (mm)
0.0000
0.6455	0.0019073	0.0071796	-1.4434
1.291	0.0019073	0.050685	-1.3999
1.937	0.0036345	0.093928	-1.3567
2.582	0.0069279	0.13702	-1.3136
3.228	0.0089512	0.18021	-1.2704
3.873	0.010974	0.22346	-1.2272
4.519	0.013364	0.26685	-1.1838
5.164	0.016584	0.30984	-1.1408
5.810	0.019804	0.35324	-1.0974
6.455	0.023024	0.39633	-1.0543
7.101	0.031342	0.43946	-1.0112
7.747	0.036381	0.48273	-0.96790
8.392	0.041420	0.52604	-0.92459
9.038	0.046459	0.56906	-0.88157
9.683	0.052655	0.61238	-0.83825
10.33	0.059572	0.65548	-0.79515
10.97	0.069135	0.69871	-0.75191
11.62	0.080419	0.74191	-0.70872
12.27	0.091703	0.78523	-0.66539
12.91	0.10389	0.82843	-0.62220
13.56	0.12238	0.87162	-0.57900
14.20	0.14096	0.91476	-0.53587
14.85	0.15954	0.95806	-0.49257
15.49	0.18072	1.0012	-0.44947
16.14	0.20339	1.0445	-0.40611
16.78	0.22926	1.0877	-0.36294
17.43	0.25969	1.1309	-0.31974
18.08	0.28691	1.1740	-0.27662
18.72	0.31717	1.2174	-0.23324
19.37	0.34861	1.2604	-0.19024
20.01	0.38011	1.3037	-0.14690
20.66	0.41312	1.3469	-0.10370
21.30	0.44669	1.3901	-0.060572
21.95	0.48478	1.4332	-0.017424
22.59	0.52268	1.4765	0.025906
23.24	0.56060	1.5196	0.069014
23.89	0.59902	1.5630	0.11237
24.53	0.64282	1.6060	0.15541
25.18	0.68448	1.6494	0.19875
25.82	0.72689	1.6925	0.24183
26.47	0.76986	1.7357	0.28508
27.11	0.81585	1.7789	0.32826
27.76	0.86265	1.8221	0.37144
28.40	0.90867	1.8653	0.41468
29.05	0.95413	1.9086	0.45798
29.70	1.0001	1.9517	0.50105
30.34	1.0469	1.9950	0.54440
30.99	1.0924	2.0381	0.58747
31.63	1.1364	2.0814	0.63079
32.28	1.1788	2.1246	0.67397
32.92	1.2219	2.1678	0.71715
33.57	1.2646	2.2109	0.76031
34.21	1.3066	2.2542	0.80361
34.86	1.3453	2.2975	0.84684
35.51	1.3821	2.3406	0.89001
36.15	1.4190	2.3837	0.93305
36.80	1.4554	2.4271	0.97644
37.44	1.4936	2.4702	1.0196
38.09	1.5303	2.5133	1.0627
38.73	1.5637	2.5565	1.1059
39.38	1.5967	2.6000	1.1493
40.02	1.6242	2.6431	1.1924
40.67	1.6496	2.6862	1.2355
41.32	1.6805	2.7295	1.2789
41.96	1.7131	2.7725	1.3219
42.61	1.7443	2.8159	1.3653
43.25	1.7753	2.8591	1.4085
43.90	1.8034	2.9024	1.4517
44.54	1.8091	2.9454	1.4948
45.19	1.8329	2.9887	1.5381
45.83	1.8579	3.0320	1.5813
46.48	1.8834	3.0751	1.6245
47.12	1.9074	3.1182	1.6676
47.77	1.9254	3.1615	1.7109
48.42	1.9433	3.2048	1.7542
49.06	1.9614	3.2480	1.7973
49.71	1.9794	3.2912	1.8405
50.35	1.9978	3.3342	1.8836
51.00	2.0137	3.3774	1.9268
51.64	2.0275	3.4208	1.9702
52.29	2.0420	3.4640	2.0134
52.93	2.0569	3.5070	2.0564
53.58	2.0709	3.5503	2.0996
54.23	2.0841	3.5936	2.1429
54.87	2.1021	3.6368	2.1862
55.52	2.1153	3.6799	2.2293
56.16	2.1218	3.7231	2.2725
56.81	2.1353	3.7664	2.3157
57.45	2.1472	3.8095	2.3588
58.10	2.1578	3.8528	2.4022
58.74	2.1712	3.8960	2.4454
59.39	2.1846	3.9391	2.4885
60.04	2.1971	3.9824	2.5318
60.68	2.2043	4.0256	2.5750
61.33	2.2124	4.0687	2.6181
61.97	2.2230	4.1119	2.6613
62.62	2.2339	4.1552	2.7046
63.26	2.2454	4.1985	2.7479
63.91	2.2595	4.2416	2.7910
64.55	2.2697	4.2848	2.8342
65.20	2.2801	4.3280	2.8774
65.85	2.2908	4.3714	2.9207
66.49	2.3013	4.4144	2.9638
67.14	2.3119	4.4578	3.0071
67.78	2.3224	4.5008	3.0502
68.43	2.3330	4.5441	3.0934
69.07	2.3434	4.5874	3.1367
69.72	2.3525	4.6305	3.1799
70.36	2.3618	4.6737	3.2231
71.01	2.3740	4.7169	3.2663
71.66	2.3862	4.7600	3.3094
72.30	2.3983	4.8033	3.3527
72.95	2.4104	4.8465	3.3959
73.59	2.4221	4.8896	3.4390
74.24	2.4323	4.9328	3.4822
74.88	2.4425	4.9760	3.5254
75.53	2.4523	5.0195	3.5688
76.17	2.4613	5.0626	3.6119
76.82	2.4669	5.1058	3.6551
77.47	2.4714	5.1491	3.6985
78.11	2.4825	5.1920	3.7414
78.76	2.4907	5.2354	3.7848
79.40	2.4991	5.2786	3.8280
80.05	2.5075	5.3218	3.8711
80.69	2.5160	5.3649	3.9142
81.34	2.5258	5.4082	3.9576
81.98	2.5362	5.4515	4.0008
82.63	2.5458	5.4947	4.0440
83.28	2.5554	5.5378	4.0871
83.92	2.5650	5.5809	4.1303
84.57	2.5747	5.6243	4.1736
85.21	2.5845	5.6674	4.2168
85.86	2.5942	5.7105	4.2599
86.50	2.6039	5.7538	4.3031
87.15	2.6148	5.7971	4.3464
87.79	2.6261	5.8402	4.3896
88.44	2.6375	5.8835	4.4328
89.09	2.6488	5.9267	4.4761
89.73	2.6576	5.9698	4.5191
90.38	2.6664	6.0131	4.5625
91.02	2.6792	6.0562	4.6056
91.67	2.6890	6.0994	4.6487
92.31	2.6988	6.1426	4.6919
92.96	2.7085	6.1859	4.7353
93.60	2.7178	6.2290	4.7784
94.25	2.7256	6.2722	4.8216
94.90	2.7354	6.3155	4.8649
95.54	2.7424	6.3586	4.9080
96.19	2.7506	6.4019	4.9513
96.83	2.7601	6.4450	4.9944
97.48	2.7685	6.4883	5.0376
98.12	2.7766	6.5314	5.0808
98.77	2.7847	6.5747	5.1241
99.41	2.7925	6.6180	5.1674
100.1	2.7997	6.6610	5.2104
100.7	2.8072	6.7043	5.2537
101.4	2.8165	6.7475	5.2968
102.0	2.8258	6.7907	5.3401
102.6	2.8352	6.8339	5.3833
103.3	2.8446	6.8771	5.4265
103.9	2.8539	6.9202	5.4696
104.6	2.8656	6.9636	5.5130
105.2	2.8727	7.0068	5.5562
105.9	2.8800	7.0499	5.5993
106.5	2.8882	7.0932	5.6426
107.2	2.8961	7.1364	5.6858
107.8	2.9041	7.1795	5.7289
108.5	2.9122	7.2227	5.7721
109.1	2.9202	7.2660	5.8154
109.7	2.9287	7.3092	5.8585
110.4	2.9380	7.3524	5.9018
111.0	2.9477	7.3957	5.9451
111.7	2.9576	7.4387	5.9881
112.3	2.9678	7.4820	6.0314
113.0	2.9781	7.5252	6.0746
113.6	2.9886	7.5684	6.1178
114.3	2.9991	7.6116	6.1609
114.9	3.0097	7.6548	6.2042
115.6	3.0180	7.6979	6.2473
116.2	3.0288	7.7412	6.2906
116.8	3.0396	7.7845	6.3339
117.5	3.0504	7.8277	6.3771
118.1	3.0607	7.8708	6.4202
118.8	3.0689	7.9142	6.4635
119.4	3.0761	7.9573	6.5067
120.1	3.0862	8.0005	6.5499
120.7	3.0968	8.0436	6.5930
121.4	3.1056	8.0868	6.6362
122.0	3.1139	8.1300	6.6794
122.7	3.1228	8.1733	6.7227
123.3	3.1312	8.2165	6.7658
123.9	3.1278	8.2598	6.8091
124.6	3.1357	8.3030	6.8524
125.2	3.1437	8.3461	6.8954
125.9	3.1515	8.3894	6.9387
126.5	3.1595	8.4325	6.9819
127.2	3.1681	8.4757	7.0251
127.8	3.1787	8.5190	7.0684
128.5	0.31662

File: Fm2_19.txt
Time (s)	Load (N)	Extension (mm)	Deflection from Preload (mm)
0.0000
0.6915	0.045755	0.013495	-0.15280
1.383	0.19176	0.059842	-0.10645
2.074	0.33359	0.10598	-0.060313
2.766	0.45246	0.15238	-0.013911
3.457	0.61079	0.19862	0.032329
4.149	0.78092	0.24478	0.078485
4.840	0.95727	0.29121	0.12492
5.532	1.1444	0.33742	0.17113
6.223	1.3517	0.38361	0.21732
6.915	1.5708	0.42987	0.26358
7.606	1.8004	0.47618	0.30989
8.297	2.0440	0.52256	0.35626
8.989	2.3017	0.56866	0.40236
9.680	2.5700	0.61499	0.44870
10.37	2.8458	0.66146	0.49517
11.06	3.1334	0.70755	0.54126
11.75	3.4349	0.75399	0.58770
12.45	3.7453	0.80019	0.63389
13.14	4.0556	0.84649	0.68020
13.83	4.3792	0.89276	0.72646
14.52	4.6992	0.93901	0.77272
15.21	5.0183	0.98521	0.81892
15.90	5.3400	1.0315	0.86526
16.59	5.6650	1.0779	0.91157
17.29	5.9801	1.1241	0.95782
17.98	6.2867	1.1704	1.0041
18.67	6.5930	1.2168	1.0505
19.36	6.8978	1.2630	1.0967
20.05	7.1955	1.3092	1.1429
20.74	7.4782	1.3555	1.1892
21.44	7.7605	1.4018	1.2355
22.13	8.0236	1.4480	1.2817
22.82	8.2957	1.4943	1.3280
23.51	8.5379	1.5405	1.3742
24.20	8.7983	1.5868	1.4205
24.89	9.0339	1.6332	1.4669
25.58	9.2529	1.6795	1.5132
26.28	9.4929	1.7256	1.5594
26.97	9.7454	1.7720	1.6057
27.66	9.9868	1.8183	1.6520
28.35	10.229	1.8647	1.6984
29.04	10.476	1.9107	1.7445
29.73	10.725	1.9571	1.7908
30.42	10.970	2.0034	1.8371
31.12	11.208	2.0497	1.8834
31.81	11.450	2.0961	1.9298
32.50	11.672	2.1422	1.9759
33.19	11.911	2.1885	2.0223
33.88	12.134	2.2347	2.0684
34.57	12.360	2.2812	2.1149
35.26	12.580	2.3273	2.1610
35.96	12.796	2.3736	2.2073
36.65	13.023	2.4198	2.2535
37.34	13.245	2.4662	2.2999
38.03	13.459	2.5125	2.3462
38.72	13.668	2.5588	2.3925
39.41	13.880	2.6050	2.4387
40.10	14.094	2.6512	2.4849
40.80	14.294	2.6977	2.5314
41.49	14.489	2.7439	2.5776
42.18	14.690	2.7900	2.6238
42.87	14.887	2.8365	2.6702
43.56	15.072	2.8828	2.7165
44.25	15.255	2.9290	2.7627
44.94	15.443	2.9752	2.8089
45.64	15.632	3.0215	2.8552
46.33	15.800	3.0679	2.9016
47.02	15.981	3.1141	2.9478
47.71	16.161	3.1602	2.9939
48.40	16.336	3.2066	3.0403
49.09	16.507	3.2529	3.0866
49.78	16.687	3.2992	3.1329
50.48	16.852	3.3454	3.1791
51.17	17.003	3.3916	3.2253
51.86	17.162	3.4380	3.2717
52.55	17.320	3.4842	3.3179
53.24	17.478	3.5307	3.3644
53.93	17.632	3.5769	3.4106
54.62	17.788	3.6231	3.4568
55.32	17.946	3.6693	3.5030
56.01	18.094	3.7156	3.5493
56.70	18.213	3.7619	3.5956
57.39	18.343	3.8082	3.6419
58.08	18.481	3.8545	3.6883
58.77	18.619	3.9009	3.7346
59.47	18.750	3.9470	3.7807
60.16	18.879	3.9934	3.8271
60.85	19.013	4.0396	3.8733
61.54	19.112	4.0858	3.9195
62.23	19.233	4.1322	3.9659
62.92	19.360	4.1784	4.0122
63.61	19.486	4.2247	4.0584
64.31	19.599	4.2709	4.1046
65.00	19.722	4.3173	4.1510
65.69	19.839	4.3635	4.1972
66.38	19.946	4.4099	4.2436
67.07	20.061	4.4561	4.2898
67.76	20.180	4.5024	4.3361
68.45	20.305	4.5487	4.3824
69.15	20.424	4.5949	4.4286
69.84	20.532	4.6414	4.4751
70.53	20.641	4.6876	4.5213
71.22	20.750	4.7338	4.5675
71.91	20.851	4.7801	4.6138
72.60	20.953	4.8263	4.6600
73.29	21.064	4.8725	4.7062
73.99	21.166	4.9190	4.7527
74.68	21.256	4.9650	4.7987
75.37	21.368	5.0114	4.8451
76.06	21.463	5.0578	4.8915
76.75	21.551	5.1040	4.9378
77.44	21.645	5.1503	4.9840
78.13	21.757	5.1965	5.0302
78.83	21.858	5.2429	5.0766
79.52	21.945	5.2891	5.1228
80.21	22.048	5.3354	5.1691
80.90	22.146	5.3817	5.2154
81.59	22.243	5.4280	5.2617
82.28	22.338	5.4743	5.3080
82.97	22.433	5.5205	5.3542
83.67	22.537	5.5669	5.4006
84.36	22.629	5.6131	5.4468
85.05	22.728	5.6593	5.4930
85.74	22.827	5.7057	5.5394
86.43	22.917	5.7519	5.5856
87.12	23.010	5.7982	5.6319
87.81	23.102	5.8444	5.6781
88.51	23.195	5.8908	5.7245
89.20	23.288	5.9371	5.7708
89.89	23.371	5.9832	5.8169
90.58	23.462	6.0295	5.8632
91.27	23.553	6.0758	5.9095
91.96	23.600	6.1222	5.9559
92.66	23.692	6.1683	6.0020
93.35	23.791	6.2147	6.0484
94.04	23.886	6.2610	6.0947
94.73	23.972	6.3074	6.1411
95.42	24.056	6.3536	6.1873
96.11	24.153	6.3999	6.2336
96.80	24.247	6.4460	6.2797
97.50	24.328	6.4923	6.3260
98.19	24.422	6.5387	6.3724
98.88	24.508	6.5848	6.4185
99.57	24.591	6.6312	6.4649
100.3	24.632	6.6774	6.5111
101.0	24.714	6.7237	6.5574
101.6	24.811	6.7700	6.6037
102.3	24.897	6.8163	6.6500
103.0	24.978	6.8626	6.6963
103.7	25.071	6.9088	6.7425
104.4	25.169	6.9551	6.7888
105.1	25.257	7.0013	6.8350
105.8	25.355	7.0478	6.8815
106.5	25.448	7.0940	6.9277
107.2	25.542	7.1402	6.9739
107.9	25.624	7.1864	7.0202
108.6	25.722	7.2328	7.0665
109.2	25.832	7.2791	7.1128
109.9	25.928	7.3253	7.1590
110.6	26.024	7.3716	7.2053
111.3	26.125	7.4180	7.2517
112.0	26.227	7.4642	7.2980
112.7	26.325	7.5105	7.3442
113.4	26.419	7.5568	7.3905
114.1	26.529	7.6030	7.4367
114.8	26.624	7.6493	7.4830
115.5	26.717	7.6956	7.5293
116.2	26.818	7.7418	7.5755
116.9	26.919	7.7881	7.6218
117.5	27.024	7.8344	7.6681
118.2	27.112	7.8808	7.7145
118.9	27.210	7.9269	7.7606
119.6	27.314	7.9733	7.8070
120.3	27.406	8.0194	7.8531
121.0	27.503	8.0658	7.8995
121.7	27.607	8.1121	7.9459
122.4	27.716	8.1584	7.9921
123.1	27.815	8.2046	8.0383
123.8	27.910	8.2508	8.0845
124.5	28.023	8.2971	8.1308
125.2	28.127	8.3435	8.1772
125.8	28.216	8.3897	8.2234
126.5	28.309	8.4361	8.2698
127.2	28.296	8.4824	8.3161
127.9	28.393	8.5287	8.3624
128.6	28.503	8.5748	8.4086
129.3	28.615	8.6211	8.4548
130.0	28.730	8.6674	8.5012
130.7	28.843	8.7136	8.5473
131.4	28.961	8.7600	8.5937
132.1	29.078	8.8063	8.6400
132.8	29.198	8.8526	8.6863
133.5	29.315	8.8988	8.7325
134.1	29.431	8.9452	8.7789
134.8	29.556	8.9914	8.8251
135.5	29.671	9.0375	8.8713
136.2	29.779	9.0838	8.9175
136.9	29.896	9.1302	8.9640
137.6	0.78583