Folder: Root

File: Fm2_9.txt
Time (s)	Load (N)	Extension (mm)	Deflection from Preload (mm)
0.0000
0.3312	0.00088002	0.000027444	-0.76400
0.6624	0.0017626	0.0088274	-0.75520
0.9936	0.0070745	0.031212	-0.73281
1.325	0.015415	0.053315	-0.71071
1.656	0.023756	0.075634	-0.68839
1.987	0.032097	0.097599	-0.66642
2.318	0.044506	0.11997	-0.64405
2.649	0.054300	0.14196	-0.62206
2.981	0.064095	0.16413	-0.59989
3.312	0.073889	0.18642	-0.57760
3.643	0.084291	0.20842	-0.55560
3.974	0.095728	0.23073	-0.53330
4.305	0.10717	0.25282	-0.51120
4.637	0.11860	0.27498	-0.48905
4.968	0.13082	0.29708	-0.46694
5.299	0.14360	0.31944	-0.44458
5.630	0.15638	0.34154	-0.42248
5.961	0.17031	0.36361	-0.40042
6.293	0.18484	0.38580	-0.37822
6.624	0.19936	0.40800	-0.35603
6.955	0.21433	0.43024	-0.33378
7.286	0.23079	0.45233	-0.31169
7.617	0.24724	0.47457	-0.28946
7.948	0.26369	0.49666	-0.26736
8.280	0.28003	0.51880	-0.24523
8.611	0.29645	0.54093	-0.22309
8.942	0.31419	0.56307	-0.20096
9.273	0.33193	0.58537	-0.17865
9.604	0.35465	0.60752	-0.15651
9.936	0.37397	0.62971	-0.13431
10.27	0.39329	0.65180	-0.11222
10.60	0.41261	0.67394	-0.090084
10.93	0.43376	0.69610	-0.067921
11.26	0.45532	0.71831	-0.045715
11.59	0.47689	0.74059	-0.023432
11.92	0.49861	0.76263	-0.0013932
12.25	0.52065	0.78475	0.020730
12.59	0.54681	0.80693	0.042908
12.92	0.56952	0.82903	0.065010
13.25	0.59224	0.85132	0.087300
13.58	0.61525	0.87355	0.10953
13.91	0.63862	0.89558	0.13156
14.24	0.66215	0.91793	0.15391
14.57	0.68567	0.93991	0.17589
14.90	0.70896	0.96216	0.19814
15.23	0.73203	0.98432	0.22030
15.57	0.75304	1.0064	0.24237
15.90	0.75857	1.0286	0.26462
16.23	0.77514	1.0507	0.28673
16.56	0.80005	1.0729	0.30891
16.89	0.82180	1.0953	0.33123
17.22	0.84825	1.1173	0.35327
17.55	0.87342	1.1394	0.37539
17.88	0.89750	1.1616	0.39761
18.22	0.92157	1.1837	0.41972
18.55	0.94381	1.2059	0.44186
18.88	0.96743	1.2282	0.46415
19.21	0.98999	1.2503	0.48624
19.54	1.0082	1.2726	0.50854
19.87	1.0305	1.2947	0.53073
20.20	1.0529	1.3169	0.55288
20.53	1.0752	1.3389	0.57492
20.86	1.0976	1.3611	0.59703
21.20	1.1195	1.3833	0.61932
21.53	1.1413	1.4055	0.64144
21.86	1.1632	1.4276	0.66355
22.19	1.1847	1.4499	0.68585
22.52	1.2069	1.4720	0.70797
22.85	1.2291	1.4941	0.73008
23.18	1.2513	1.5163	0.75230
23.51	1.2739	1.5385	0.77444
23.85	1.2969	1.5607	0.79669
24.18	1.3174	1.5828	0.81879
24.51	1.3365	1.6049	0.84091
24.84	1.3543	1.6272	0.86317
25.17	1.3725	1.6493	0.88529
25.50	1.3902	1.6715	0.90744
25.83	1.4091	1.6936	0.92958
26.16	1.4309	1.7157	0.95171
26.49	1.4508	1.7380	0.97397
26.83	1.4712	1.7601	0.99606
27.16	1.4916	1.7822	1.0182
27.49	1.4900	1.8044	1.0403
27.82	1.4978	1.8265	1.0625
28.15	1.5150	1.8488	1.0848
28.48	1.5362	1.8711	1.1070
28.81	1.5574	1.8931	1.1290
29.14	1.5784	1.9154	1.1513
29.48	1.5985	1.9374	1.1733
29.81	1.6181	1.9595	1.1955
30.14	1.6369	1.9817	1.2177
30.47	1.6530	2.0040	1.2399
30.80	1.6688	2.0262	1.2622
31.13	1.6843	2.0483	1.2842
31.46	1.6994	2.0704	1.3064
31.79	1.7173	2.0927	1.3286
32.13	1.7306	2.1148	1.3508
32.46	1.7442	2.1371	1.3731
32.79	1.7604	2.1591	1.3951
33.12	1.7766	2.1813	1.4173
33.45	1.7913	2.2035	1.4395
33.78	1.8060	2.2256	1.4616
34.11	1.8206	2.2477	1.4837
34.44	1.8354	2.2699	1.5059
34.77	1.8539	2.2921	1.5280
35.11	1.8687	2.3142	1.5501
35.44	1.8834	2.3363	1.5723
35.77	1.8970	2.3585	1.5945
36.10	1.9095	2.3808	1.6167
36.43	1.9219	2.4030	1.6389
36.76	1.9338	2.4252	1.6612
37.09	1.9455	2.4472	1.6832
37.42	1.9516	2.4694	1.7054
37.76	1.9595	2.4917	1.7277
38.09	1.9679	2.5137	1.7497
38.42	1.9773	2.5360	1.7720
38.75	1.9800	2.5581	1.7941
39.08	1.9902	2.5803	1.8162
39.41	2.0005	2.6023	1.8383
39.74	2.0113	2.6246	1.8606
40.07	2.0222	2.6468	1.8828
40.40	2.0322	2.6689	1.9049
40.74	2.0423	2.6910	1.9270
41.07	2.0555	2.7133	1.9493
41.40	2.0670	2.7353	1.9713
41.73	2.0785	2.7577	1.9936
42.06	2.0900	2.7799	2.0158
42.39	2.1022	2.8020	2.0380
42.72	2.1144	2.8240	2.0600
43.05	2.1245	2.8462	2.0821
43.39	2.1338	2.8683	2.1043
43.72	2.1428	2.8905	2.1265
44.05	2.1507	2.9128	2.1488
44.38	2.1543	2.9350	2.1709
44.71	2.1324	2.9572	2.1932
45.04	2.1189	2.9793	2.2153
45.37	2.1170	3.0014	2.2374
45.70	2.1156	3.0235	2.2595
46.04	2.1231	3.0457	2.2817
46.37	2.1311	3.0679	2.3039
46.70	2.1412	3.0901	2.3261
47.03	2.1549	3.1124	2.3484
47.36	2.1675	3.1344	2.3703
47.69	2.1779	3.1566	2.3925
48.02	2.1874	3.1788	2.4148
48.35	2.1962	3.2010	2.4369
48.68	2.2050	3.2231	2.4591
49.02	2.2138	3.2452	2.4811
49.35	2.2223	3.2673	2.5033
49.68	2.2304	3.2896	2.5256
50.01	2.2385	3.3118	2.5478
50.34	2.2466	3.3339	2.5699
50.67	2.2547	3.3560	2.5920
51.00	2.2621	3.3782	2.6141
51.33	2.2678	3.4003	2.6363
51.67	2.2745	3.4226	2.6586
52.00	2.2815	3.4447	2.6807
52.33	2.2906	3.4668	2.7028
52.66	2.2940	3.4891	2.7251
52.99	2.2979	3.5112	2.7472
53.32	2.3019	3.5334	2.7694
53.65	2.3044	3.5555	2.7915
53.98	2.3089	3.5776	2.8136
54.31	2.3141	3.5997	2.8357
54.65	2.3193	3.6221	2.8581
54.98	2.3256	3.6444	2.8803
55.31	2.3327	3.6664	2.9023
55.64	2.3395	3.6886	2.9246
55.97	2.3459	3.7108	2.9468
56.30	2.3524	3.7329	2.9689
56.63	2.3585	3.7551	2.9910
56.96	2.3651	3.7771	3.0131
57.30	2.3723	3.7994	3.0354
57.63	2.3795	3.8216	3.0576
57.96	2.3867	3.8437	3.0797
58.29	2.3940	3.8658	3.1018
58.62	2.4011	3.8880	3.1240
58.95	2.4044	3.9102	3.1462
59.28	2.4077	3.9324	3.1684
59.61	2.4110	3.9545	3.1905
59.94	2.4151	3.9768	3.2128
60.28	2.4194	3.9989	3.2349
60.61	2.4234	4.0210	3.2570
60.94	2.4273	4.0432	3.2792
61.27	2.4313	4.0653	3.3013
61.60	2.4352	4.0874	3.3234
61.93	2.4392	4.1098	3.3458
62.26	2.4431	4.1320	3.3680
62.59	2.4469	4.1540	3.3900
62.93	2.4491	4.1762	3.4122
63.26	2.4492	4.1983	3.4343
63.59	2.4514	4.2204	3.4564
63.92	2.4542	4.2427	3.4787
64.25	2.4581	4.2649	3.5009
64.58	2.4619	4.2870	3.5230
64.91	2.4671	4.3091	3.5451
65.24	2.4731	4.3314	3.5673
65.58	2.4791	4.3535	3.5895
65.91		4.3757	3.6116

File: Fm2_10.txt
Time (s)	Load (N)	Extension (mm)	Deflection from Preload (mm)
0.0000
0.7497	-0.0019073	0.016608	-1.2996
1.499	0.0020006	0.066675	-1.2495
2.249	0.0080079	0.11693	-1.1993
2.999	0.014015	0.16707	-1.1491
3.749	0.024237	0.21731	-1.0989
4.498	0.032465	0.26749	-1.0487
5.248	0.040703	0.31758	-0.99864
5.998	0.051457	0.36785	-0.94838
6.747	0.063964	0.41788	-0.89834
7.497	0.080663	0.46814	-0.84808
8.247	0.094839	0.51842	-0.79781
8.997	0.10903	0.56835	-0.74787
9.746	0.12715	0.61865	-0.69757
10.50	0.14526	0.66878	-0.64744
11.25	0.16416	0.71914	-0.59708
12.00	0.18504	0.76920	-0.54702
12.75	0.20977	0.81936	-0.49687
13.49	0.23432	0.86947	-0.44675
14.24	0.25961	0.91971	-0.39651
14.99	0.28635	0.96992	-0.34630
15.74	0.31271	1.0201	-0.29615
16.49	0.34050	1.0702	-0.24600
17.24	0.37076	1.1205	-0.19573
17.99	0.40142	1.1705	-0.14569
18.74	0.43209	1.2210	-0.095262
19.49	0.46954	1.2710	-0.045183
20.24	0.50349	1.3213	0.0050563
20.99	0.53891	1.3712	0.054999
21.74	0.57698	1.4215	0.10524
22.49	0.62046	1.4716	0.15543
23.24	0.66041	1.5219	0.20572
23.99	0.70022	1.5719	0.25572
24.74	0.74264	1.6222	0.30596
25.49	0.78723	1.6723	0.35610
26.24	0.82998	1.7227	0.40649
26.99	0.87393	1.7727	0.45646
27.74	0.91786	1.8230	0.50680
28.49	0.96051	1.8731	0.55683
29.24	1.0020	1.9232	0.60702
29.99	1.0437	1.9734	0.65717
30.74	1.0844	2.0237	0.70747
31.49	1.1245	2.0738	0.75755
32.24	1.1593	2.1240	0.80776
32.99	1.1950	2.1742	0.85793
33.74	1.2308	2.2244	0.90813
34.49	1.2651	2.2745	0.95832
35.24	1.2977	2.3248	1.0086
35.99	1.3286	2.3749	1.0587
36.74	1.3589	2.4251	1.1089
37.49	1.3893	2.4753	1.1591
38.24	1.4178	2.5253	1.2091
38.98	1.4441	2.5755	1.2593
39.73	1.4715	2.6257	1.3094
40.48	1.4979	2.6759	1.3597
41.23	1.5236	2.7260	1.4098
41.98	1.5493	2.7763	1.4601
42.73	1.5724	2.8265	1.5103
43.48	1.5955	2.8767	1.5605
44.23	1.6177	2.9268	1.6106
44.98	1.6395	2.9769	1.6607
45.73	1.6592	3.0272	1.7110
46.48	1.6783	3.0773	1.7611
47.23	1.6985	3.1274	1.8112
47.98	1.7149	3.1776	1.8614
48.73	1.7328	3.2280	1.9118
49.48	1.7510	3.2781	1.9619
50.23	1.7678	3.3283	2.0121
50.98	1.7826	3.3784	2.0622
51.73	1.7980	3.4287	2.1125
52.48	1.8134	3.4787	2.1625
53.23	1.8287	3.5290	2.2128
53.98	1.8432	3.5791	2.2629
54.73	1.8573	3.6294	2.3132
55.48	1.8714	3.6795	2.3633
56.23	1.8854	3.7297	2.4135
56.98	1.8993	3.7798	2.4635
57.73	1.9126	3.8302	2.5139
58.48	1.9261	3.8802	2.5639
59.23	1.9399	3.9305	2.6143
59.98	1.9499	3.9805	2.6643
60.73	1.9600	4.0308	2.7146
61.48	1.9678	4.0809	2.7647
62.23	1.9763	4.1311	2.8149
62.98	1.9896	4.1812	2.8650
63.73	1.9988	4.2315	2.9153
64.48	2.0087	4.2815	2.9653
65.22	2.0196	4.3319	3.0157
65.97	2.0307	4.3819	3.0657
66.72	2.0419	4.4322	3.1160
67.47	2.0531	4.4823	3.1661
68.22	2.0643	4.5324	3.2161
68.97	2.0763	4.5827	3.2665
69.72	2.0857	4.6328	3.3166
70.47	2.0948	4.6830	3.3667
71.22	2.1035	4.7333	3.4171
71.97	2.1122	4.7834	3.4672
72.72	2.1229	4.8335	3.5173
73.47	2.1329	4.8837	3.5675
74.22	2.1423	4.9338	3.6176
74.97	2.1509	4.9840	3.6678
75.72	2.1603	5.0342	3.7180
76.47	2.1695	5.0844	3.7681
77.22	2.1791	5.1346	3.8184
77.97	2.1872	5.1848	3.8685
78.72	2.1959	5.2349	3.9187
79.47	2.2046	5.2852	3.9690
80.22	2.2133	5.3352	4.0190
80.97	2.2220	5.3854	4.0692
81.72	2.2280	5.4356	4.1194
82.47	2.2366	5.4858	4.1696
83.22	2.2457	5.5360	4.2198
83.97	2.2549	5.5861	4.2699
84.72	2.2640	5.6365	4.3202
85.47	2.2728	5.6866	4.3704
86.22	2.2820	5.7367	4.4205
86.97	2.2919	5.7870	4.4708
87.72	2.3017	5.8372	4.5210
88.47	2.3118	5.8873	4.5710
89.22	2.3249	5.9376	4.6213
89.97	2.3343	5.9876	4.6714
90.71	2.3437	6.0377	4.7215
91.46	2.3530	6.0880	4.7717
92.21	2.3622	6.1382	4.8220
92.96	2.3715	6.1883	4.8721
93.71	2.3798	6.2384	4.9222
94.46	2.3835	6.2886	4.9723
95.21	2.3906	6.3389	5.0227
95.96	2.3995	6.3891	5.0729
96.71	2.4098	6.4391	5.1229
97.46	2.4183	6.4894	5.1732
98.21	2.4217	6.5396	5.2234
98.96	2.4317	6.5896	5.2734
99.71	2.4416	6.6399	5.3237
100.5	2.4474	6.6901	5.3738
101.2	2.4572	6.7402	5.4240
102.0	2.4666	6.7905	5.4742
102.7	2.4752	6.8407	5.5245
103.5	2.4839	6.8908	5.5746
104.2	2.4890	6.9409	5.6247
105.0	2.4879	6.9912	5.6749
105.7	2.4867	7.0412	5.7250
106.5	2.4855	7.0914	5.7752
107.2	2.4859	7.1417	5.8255
108.0	2.4915	7.1919	5.8757
108.7	2.4981	7.2421	5.9259
109.5	2.5073	7.2923	5.9761
110.2	2.5160	7.3423	6.0261
111.0	2.5252	7.3926	6.0764
111.7	2.5359	7.4428	6.1266
112.5	2.5454	7.4929	6.1767
113.2	2.5549	7.5430	6.2268
114.0	2.5691	7.5932	6.2770
114.7	2.5824	7.6433	6.3271
115.5	2.5949	7.6936	6.3774
116.2	2.6069	7.7438	6.4275
117.0	2.6177	7.7939	6.4777
117.7	2.6302	7.8442	6.5280
118.5	2.6415	7.8943	6.5780
119.2	2.6528	7.9446	6.6284
120.0	2.6620	7.9948	6.6785
120.7	2.6703	8.0447	6.7285
121.5	2.6746	8.0950	6.7788
122.2	2.6819	8.1453	6.8291
123.0	2.6900	8.1954	6.8792
123.7	2.6959	8.2455	6.9293
124.5	2.7043	8.2959	6.9796
125.2	2.7134	8.3459	7.0297
126.0	2.7222	8.3962	7.0800
126.7	2.7310	8.4462	7.1299
127.5	2.7404	8.4965	7.1803
128.2	2.7492	8.5467	7.2305
129.0	2.7570	8.5969	7.2807
129.7	2.7648	8.6469	7.3306
130.4	2.7725	8.6972	7.3809
131.2	2.7803	8.7473	7.4311
131.9	2.7881	8.7975	7.4813
132.7	2.7981	8.8476	7.5314
133.4	2.8043	8.8978	7.5816
134.2	2.8099	8.9481	7.6319
134.9	2.8188	8.9983	7.6821
135.7	2.8278	9.0483	7.7321
136.4	2.8367	9.0986	7.7823
137.2	2.8456	9.1488	7.8326
137.9	2.8546	9.1990	7.8828
138.7	2.8624	9.2491	7.9328
139.4	2.8694	9.2993	7.9830
140.2	2.8777	9.3495	8.0333
140.9	2.8864	9.3997	8.0835
141.7	2.8950	9.4498	8.1335
142.4	2.9078	9.5000	8.1838
143.2	2.9166	9.5501	8.2339
143.9	2.9254	9.6004	8.2842
144.7	2.9345	9.6505	8.3343
145.4	2.9437	9.7007	8.3845
146.2	2.9530	9.7508	8.4346
146.9	2.9617	9.8010	8.4848
147.7	2.9705	9.8512	8.5350
148.4	2.9771	9.9014	8.5851
149.2		9.9516	8.6353

File: Fm2_11.txt
Time (s)	Load (N)	Extension (mm)	Deflection from Preload (mm)
0.0000
0.5496	-0.00052701	0.0043353	-1.2713
1.099	0.0029321	0.041161	-1.2345
1.649	0.0088863	0.077922	-1.1978
2.198	0.014841	0.11472	-1.1610
2.748	0.025405	0.15158	-1.1241
3.298	0.033670	0.18833	-1.0874
3.847	0.041935	0.22511	-1.0506
4.397	0.050200	0.26197	-1.0137
4.947	0.058577	0.29858	-0.97710
5.496	0.068406	0.33535	-0.94033
6.046	0.078275	0.37233	-0.90335
6.595	0.090203	0.40901	-0.86667
7.145	0.10213	0.44570	-0.82998
7.695	0.11406	0.48266	-0.79302
8.244	0.12638	0.51930	-0.75638
8.794	0.14056	0.55619	-0.71949
9.344	0.15514	0.59291	-0.68277
9.893	0.17050	0.62971	-0.64597
10.44	0.18586	0.66643	-0.60925
10.99	0.20121	0.70330	-0.57238
11.54	0.21726	0.74000	-0.53568
12.09	0.23431	0.77699	-0.49869
12.64	0.25190	0.81361	-0.46207
13.19	0.26960	0.85046	-0.42522
13.74	0.29054	0.88723	-0.38845
14.29	0.30916	0.92401	-0.35167
14.84	0.32777	0.96084	-0.31484
15.39	0.34682	0.99758	-0.27810
15.94	0.36598	1.0345	-0.24123
16.49	0.38572	1.0711	-0.20455
17.04	0.40659	1.1078	-0.16785
17.59	0.42746	1.1447	-0.13094
18.14	0.44792	1.1814	-0.094244
18.69	0.46819	1.2183	-0.057399
19.24	0.48861	1.2551	-0.020552
19.79	0.50904	1.2920	0.016302
20.34	0.52946	1.3286	0.052953
20.89	0.54890	1.3653	0.089602
21.44	0.56774	1.4023	0.12658
21.98	0.58985	1.4390	0.16332
22.53	0.61053	1.4759	0.20019
23.08	0.62951	1.5125	0.23682
23.63	0.64991	1.5493	0.27367
24.18	0.67180	1.5860	0.31034
24.73	0.69092	1.6228	0.34714
25.28	0.70550	1.6597	0.38405
25.83	0.72207	1.6965	0.42081
26.38	0.74388	1.7332	0.45754
26.93	0.74496	1.7700	0.49431
27.48	0.76126	1.8067	0.53105
28.03	0.78203	1.8435	0.56785
28.58	0.80665	1.8805	0.60479
29.13	0.82848	1.9172	0.64153
29.68	0.84372	1.9539	0.67824
30.23	0.86341	1.9908	0.71508
30.78	0.88310	2.0276	0.75192
31.33	0.90278	2.0643	0.78858
31.88	0.92384	2.1011	0.82545
32.43	0.94396	2.1380	0.86233
32.98	0.96190	2.1747	0.89905
33.53	0.98097	2.2116	0.93591
34.08	1.0003	2.2482	0.97249
34.63	1.0194	2.2850	1.0094
35.18	1.0381	2.3218	1.0461
35.73	1.0511	2.3586	1.0829
36.27	1.0608	2.3955	1.1198
36.82	1.0714	2.4321	1.1565
37.37	1.0872	2.4689	1.1932
37.92	1.1028	2.5056	1.2300
38.47	1.1182	2.5425	1.2668
39.02	1.1373	2.5792	1.3035
39.57	1.1563	2.6161	1.3405
40.12	1.1754	2.6530	1.3773
40.67	1.1904	2.6897	1.4140
41.22	1.2071	2.7266	1.4510
41.77	1.2258	2.7633	1.4876
42.32	1.2445	2.8001	1.5244
42.87	1.2625	2.8367	1.5611
43.42	1.2776	2.8736	1.5979
43.97	1.2934	2.9103	1.6346
44.52	1.3104	2.9471	1.6714
45.07	1.3282	2.9840	1.7083
45.62	1.3459	3.0208	1.7451
46.17	1.3633	3.0574	1.7817
46.72	1.3790	3.0943	1.8186
47.27	1.3948	3.1312	1.8555
47.82	1.4075	3.1680	1.8923
48.37	1.4236	3.2047	1.9290
48.92	1.4390	3.2414	1.9657
49.47	1.4555	3.2782	2.0025
50.02	1.4722	3.3151	2.0394
50.56	1.4861	3.3519	2.0762
51.11	1.4993	3.3886	2.1130
51.66	1.5125	3.4254	2.1497
52.21	1.5232	3.4621	2.1865
52.76	1.5131	3.4990	2.2233
53.31	1.5254	3.5356	2.2599
53.86	1.5392	3.5724	2.2967
54.41	1.2852	3.6094	2.3337
54.96	1.3066	3.6462	2.3705
55.51	1.3316	3.6829	2.4072
56.06	1.3577	3.7196	2.4439
56.61	1.3821	3.7565	2.4808
57.16	1.4016	3.7933	2.5176
57.71	1.4277	3.8299	2.5542
58.26	1.4497	3.8668	2.5912
58.81	1.4673	3.9035	2.6278
59.36	1.4824	3.9404	2.6648
59.91	1.4965	3.9771	2.7014
60.46	1.5099	4.0139	2.7382
61.01	1.5233	4.0506	2.7750
61.56	1.5349	4.0875	2.8118
62.11	1.5458	4.1243	2.8487
62.66	1.5556	4.1611	2.8854
63.21	1.5605	4.1977	2.9220
63.76	1.5672	4.2346	2.9589
64.31	1.5746	4.2714	2.9957
64.85	1.5801	4.3083	3.0326
65.40	1.5872	4.3451	3.0694
65.95	1.5973	4.3818	3.1061
66.50	1.6074	4.4185	3.1428
67.05	1.6186	4.4553	3.1796
67.60	1.6303	4.4922	3.2165
68.15	1.6421	4.5290	3.2533
68.70	1.6536	4.5656	3.2900
69.25	1.6642	4.6025	3.3268
69.80	1.6749	4.6392	3.3635
70.35	1.6850	4.6761	3.4004
70.90	1.6946	4.7128	3.4371
71.45	1.7018	4.7496	3.4739
72.00	1.7081	4.7865	3.5108
72.55	1.7143	4.8231	3.5474
73.10	1.7205	4.8600	3.5843
73.65	1.7267	4.8967	3.6210
74.20	1.7321	4.9337	3.6580
74.75	1.7362	4.9703	3.6946
75.30	1.7438	5.0072	3.7315
75.85	1.7526	5.0440	3.7683
76.40	1.7613	5.0807	3.8051
76.95	1.7700	5.1174	3.8417
77.50	1.7787	5.1543	3.8786
78.05	1.7870	5.1911	3.9154
78.60	1.7951	5.2278	3.9521
79.15	1.8032	5.2646	3.9889
79.69	1.8113	5.3014	4.0257
80.24	1.8182	5.3382	4.0626
80.79	1.8243	5.3749	4.0992
81.34	1.8299	5.4118	4.1361
81.89	1.8334	5.4485	4.1728
82.44	1.8369	5.4854	4.2097
82.99	1.8405	5.5222	4.2465
83.54	1.8440	5.5589	4.2833
84.09	1.8512	5.5957	4.3200
84.64	1.8586	5.6325	4.3569
85.19	1.8667	5.6691	4.3935
85.74	1.8780	5.7061	4.4304
86.29	1.8852	5.7429	4.4672
86.84	1.8923	5.7797	4.5040
87.39	1.8995	5.8163	4.5406
87.94	1.9083	5.8532	4.5775
88.49	1.9189	5.8900	4.6143
89.04	1.9290	5.9268	4.6511
89.59	1.9385	5.9635	4.6878
90.14	1.9480	6.0002	4.7245
90.69	1.9576	6.0371	4.7614
91.24	1.9663	6.0739	4.7982
91.79	1.9746	6.1107	4.8350
92.34	1.9828	6.1476	4.8719
92.89	1.9910	6.1842	4.9086
93.44	2.0033	6.2210	4.9453
93.98	2.0104	6.2577	4.9820
94.53	2.0175	6.2946	5.0189
95.08	2.0245	6.3314	5.0557
95.63	2.0323	6.3681	5.0924
96.18	2.0401	6.4050	5.1293
96.73	2.0479	6.4416	5.1659
97.28	2.0557	6.4786	5.2029
97.83	2.0635	6.5153	5.2396
98.38	2.0713	6.5521	5.2765
98.93	2.0791	6.5889	5.3132
99.48	2.0883	6.6256	5.3499
100.0	2.0977	6.6625	5.3869
100.6	2.1069	6.6991	5.4234
101.1	2.1162	6.7360	5.4603
101.7	2.1255	6.7728	5.4971
102.2	2.1345	6.8096	5.5339
102.8	2.1426	6.8464	5.5708
103.3	2.1503	6.8832	5.6075
103.9	2.1580	6.9199	5.6442
104.4	2.1656	6.9568	5.6811
105.0	2.1733	6.9935	5.7178
105.5	2.1780	7.0302	5.7546
106.1	2.1842	7.0671	5.7914
106.6	2.1900	7.1039	5.8282
107.2	2.1957	7.1407	5.8650
107.7	2.2014	7.1774	5.9017
108.3	2.2071	7.2142	5.9385
108.8	2.2135	7.2511	5.9754
109.4		7.2878	6.0121

File: Fm2_12.txt
Time (s)	Load (N)	Extension (mm)	Deflection from Preload (mm)
0.0000
0.5176	0.00000	0.00054318	-1.3786
1.035	0.0030117	0.034706	-1.3444
1.553	0.0073096	0.069390	-1.3097
2.071	0.010676	0.10403	-1.2751
2.588	0.014043	0.13855	-1.2406
3.106	0.017409	0.17329	-1.2058
3.623	0.020776	0.20789	-1.1712
4.141	0.024676	0.24265	-1.1365
4.659	0.029159	0.27730	-1.1018
5.176	0.033641	0.31176	-1.0674
5.694	0.038582	0.34648	-1.0326
6.212	0.043778	0.38113	-0.99799
6.729	0.048975	0.41578	-0.96333
7.247	0.054172	0.45035	-0.92877
7.765	0.058704	0.48507	-0.89404
8.282	0.063873	0.51971	-0.85941
8.800	0.071226	0.55441	-0.82471
9.318	0.079447	0.58907	-0.79004
9.835	0.087711	0.62366	-0.75546
10.35	0.095975	0.65833	-0.72079
10.87	0.10458	0.69295	-0.68617
11.39	0.11460	0.72754	-0.65158
11.91	0.12463	0.76235	-0.61677
12.42	0.13569	0.79692	-0.58220
12.94	0.14823	0.83145	-0.54767
13.46	0.16335	0.86623	-0.51289
13.98	0.17752	0.90076	-0.47836
14.49	0.19304	0.93541	-0.44370
15.01	0.20918	0.97007	-0.40904
15.53	0.22674	1.0048	-0.37432
16.05	0.24714	1.0394	-0.33968
16.56	0.26865	1.0740	-0.30516
17.08	0.29016	1.1088	-0.27035
17.60	0.31261	1.1433	-0.23585
18.12	0.33573	1.1780	-0.20115
18.64	0.36352	1.2127	-0.16644
19.15	0.39126	1.2472	-0.13188
19.67	0.41900	1.2820	-0.097113
20.19	0.44598	1.3165	-0.062613
20.71	0.47540	1.3512	-0.027880
21.22	0.50644	1.3858	0.0066733
21.74	0.53993	1.4203	0.041234
22.26	0.57342	1.4551	0.075973
22.78	0.60544	1.4897	0.11061
23.29	0.64302	1.5244	0.14533
23.81	0.67986	1.5592	0.18007
24.33	0.71671	1.5938	0.21466
24.85	0.75356	1.6284	0.24924
25.36	0.79143	1.6629	0.28383
25.88	0.83021	1.6976	0.31853
26.40	0.86927	1.7324	0.35331
26.92	0.90997	1.7669	0.38779
27.44	0.95094	1.8016	0.42249
27.95	0.99178	1.8361	0.45703
28.47	1.0326	1.8708	0.49171
28.99	1.0736	1.9055	0.52639
29.51	1.1162	1.9401	0.56097
30.02	1.1623	1.9747	0.59562
30.54	1.2041	2.0094	0.63031
31.06	1.2466	2.0441	0.66494
31.58	1.2895	2.0787	0.69958
32.09	1.3280	2.1135	0.73435
32.61	1.3579	2.1480	0.76886
33.13	1.3865	2.1827	0.80360
33.65	1.4228	2.2172	0.83812
34.16	1.4639	2.2520	0.87285
34.68	1.5063	2.2866	0.90751
35.20	1.5484	2.3213	0.94215
35.72	1.5862	2.3559	0.97678
36.23	1.6265	2.3905	1.0113
36.75	1.6622	2.4252	1.0461
37.27	1.7008	2.4598	1.0807
37.79	1.7435	2.4945	1.1153
38.31	1.7796	2.5292	1.1501
38.82	1.8162	2.5638	1.1847
39.34	1.8537	2.5984	1.2193
39.86	1.8924	2.6331	1.2540
40.38	1.9016	2.6677	1.2886
40.89	1.9339	2.7023	1.3231
41.41	1.9704	2.7370	1.3579
41.93	2.0094	2.7716	1.3925
42.45	2.0486	2.8064	1.4273
42.96	2.0875	2.8409	1.4618
43.48	2.1250	2.8755	1.4964
44.00	2.1610	2.9102	1.5311
44.52	2.1981	2.9449	1.5658
45.03	2.2373	2.9795	1.6004
45.55	2.2747	3.0142	1.6351
46.07	2.3089	3.0489	1.6698
46.59	2.3437	3.0835	1.7044
47.11	2.3779	3.1181	1.7390
47.62	2.4092	3.1529	1.7737
48.14	2.4217	3.1873	1.8082
48.66	2.4479	3.2221	1.8429
49.18	2.4810	3.2566	1.8775
49.69	2.5117	3.2912	1.9120
50.21	2.5412	3.3259	1.9468
50.73	2.5715	3.3606	1.9814
51.25	2.5969	3.3953	2.0162
51.76	2.6218	3.4299	2.0508
52.28	2.6505	3.4645	2.0854
52.80	2.6814	3.4991	2.1200
53.32	2.7130	3.5339	2.1548
53.83	2.7445	3.5685	2.1894
54.35	2.7757	3.6032	2.2240
54.87	2.8063	3.6377	2.2585
55.39	2.8305	3.6724	2.2933
55.91	2.8590	3.7070	2.3279
56.42	2.8878	3.7416	2.3625
56.94	2.8694	3.7764	2.3973
57.46	2.8926	3.8111	2.4320
57.98	2.9200	3.8455	2.4664
58.49	2.9426	3.8802	2.5011
59.01	2.9563	3.9149	2.5358
59.53	2.9797	3.9496	2.5705
60.05	3.0100	3.9842	2.6051
60.56	3.0369	4.0189	2.6398
61.08	3.0636	4.0535	2.6744
61.60	3.0864	4.0883	2.7091
62.12	3.1102	4.1228	2.7437
62.63	3.1340	4.1575	2.7784
63.15	3.1577	4.1921	2.8130
63.67	3.1674	4.2267	2.8476
64.19	3.1884	4.2614	2.8823
64.71	3.2095	4.2959	2.9168
65.22	3.2305	4.3306	2.9514
65.74	3.2516	4.3652	2.9861
66.26	3.2712	4.3999	3.0208
66.78	3.2891	4.4345	3.0554
67.29	3.3073	4.4693	3.0901
67.81	3.3259	4.5038	3.1247
68.33	3.3446	4.5385	3.1594
68.85	3.3624	4.5732	3.1940
69.36	3.3783	4.6079	3.2287
69.88	3.3942	4.6424	3.2633
70.40	3.4080	4.6772	3.2980
70.92	3.4218	4.7117	3.3326
71.43	3.4351	4.7464	3.3673
71.95	3.4510	4.7811	3.4020
72.47	3.4677	4.8156	3.4365
72.99	3.4850	4.8504	3.4713
73.51	3.5003	4.8850	3.5059
74.02	3.5148	4.9196	3.5404
74.54	3.5293	4.9543	3.5751
75.06	3.5440	4.9890	3.6099
75.58	3.5597	5.0236	3.6445
76.09	3.5755	5.0582	3.6791
76.61	3.5913	5.0928	3.7137
77.13	3.6062	5.1275	3.7484
77.65	3.6204	5.1621	3.7830
78.16	3.6354	5.1968	3.8177
78.68	3.6497	5.2314	3.8523
79.20	3.6629	5.2661	3.8870
79.72	3.6761	5.3006	3.9215
80.23	3.6920	5.3353	3.9562
80.75	3.7079	5.3699	3.9908
81.27	3.7234	5.4046	4.0255
81.79	3.7364	5.4393	4.0602
82.31	3.7469	5.4740	4.0949
82.82	3.7583	5.5086	4.1295
83.34	3.7714	5.5432	4.1641
83.86	3.7856	5.5779	4.1988
84.38	3.7997	5.6126	4.2334
84.89	3.8139	5.6472	4.2680
85.41	3.8280	5.6818	4.3026
85.93	3.8420	5.7164	4.3373
86.45	3.8559	5.7510	4.3719
86.96	3.8702	5.7858	4.4067
87.48	3.8845	5.8204	4.4412
88.00	3.8979	5.8551	4.4759
88.52	3.9111	5.8896	4.5105
89.03	3.9243	5.9243	4.5452
89.55	3.9368	5.9589	4.5798
90.07	3.9493	5.9937	4.6146
90.59	3.9604	6.0283	4.6492
91.10	3.9744	6.0629	4.6838
91.62	3.9890	6.0975	4.7183
92.14	4.0030	6.1321	4.7529
92.66	4.0146	6.1668	4.7877
93.18	4.0275	6.2014	4.8223
93.69	4.0404	6.2362	4.8571
94.21	4.0531	6.2709	4.8917
94.73	4.0655	6.3054	4.9263
95.25	4.0782	6.3401	4.9610
95.76	4.0913	6.3746	4.9955
96.28	4.1051	6.4094	5.0303
96.80	4.1193	6.4440	5.0649
97.32	4.1270	6.4785	5.0994
97.83	4.1381	6.5132	5.1341
98.35	4.1493	6.5479	5.1688
98.87	4.1608	6.5825	5.2033
99.39	4.1724	6.6171	5.2380
99.90	4.1838	6.6518	5.2727
100.4	4.2006	6.6865	5.3074
100.9	4.2150	6.7213	5.3422
101.5	4.2293	6.7559	5.3767
102.0	4.2414	6.7905	5.4114
102.5	4.2535	6.8250	5.4459
103.0		6.8597	5.4806