Folder: Root (part 3)

File: Fm2_20.txt
Time (s)	Load (N)	Extension (mm)	Deflection from Preload (mm)
0.0000
0.7518	0.00000	0.018232	-1.3321
1.504	0.0053996	0.068467	-1.2819
2.255	0.012659	0.11882	-1.2315
3.007	0.020937	0.16918	-1.1811
3.759	0.030880	0.21958	-1.1307
4.511	0.040823	0.26973	-1.0806
5.262	0.050767	0.32008	-1.0302
6.014	0.061703	0.37045	-0.97987
6.766	0.075787	0.42065	-0.92967
7.518	0.093225	0.47091	-0.87941
8.270	0.10952	0.52141	-0.82891
9.021	0.12815	0.57170	-0.77862
9.773	0.14818	0.62200	-0.72832
10.52	0.16822	0.67233	-0.67799
11.28	0.18924	0.72273	-0.62759
12.03	0.21242	0.77285	-0.57747
12.78	0.23559	0.82316	-0.52716
13.53	0.26423	0.87359	-0.47673
14.28	0.29100	0.92400	-0.42632
15.04	0.31776	0.97415	-0.37617
15.79	0.34536	1.0246	-0.32573
16.54	0.37477	1.0748	-0.27553
17.29	0.40631	1.1250	-0.22528
18.04	0.40988	1.1755	-0.17486
18.79	0.43346	1.2257	-0.12461
19.55	0.46023	1.2760	-0.074304
20.30	0.48710	1.3265	-0.023829
21.05	0.51553	1.3768	0.026474
21.80	0.54793	1.4269	0.076617
22.55	0.57174	1.4773	0.12703
23.31	0.60795	1.5276	0.17726
24.06	0.64431	1.5780	0.22772
24.81	0.67377	1.6283	0.27794
25.56	0.69842	1.6786	0.32827
26.31	0.72996	1.7288	0.37851
27.06	0.77025	1.7792	0.42885
27.82	0.81704	1.8296	0.47926
28.57	0.86911	1.8798	0.52947
29.32	0.91951	1.9303	0.57995
30.07	0.97039	1.9806	0.63027
30.82	1.0221	2.0307	0.68038
31.57	1.0707	2.0812	0.73087
32.33	1.1223	2.1314	0.78108
33.08	1.1571	2.1818	0.83148
33.83	1.2098	2.2321	0.88176
34.58	1.2717	2.2824	0.93204
35.33	1.3291	2.3328	0.98249
36.09	1.3868	2.3831	1.0328
36.84	1.4398	2.4333	1.0830
37.59	1.4952	2.4837	1.1334
38.34	1.5501	2.5339	1.1836
39.09	1.6044	2.5842	1.2339
39.84	1.6587	2.6346	1.2843
40.60	1.7088	2.6848	1.3345
41.35	1.7371	2.7351	1.3848
42.10	1.7864	2.7856	1.4353
42.85	1.8358	2.8358	1.4854
43.60	1.8774	2.8862	1.5359
44.35	1.9202	2.9365	1.5862
45.11	1.9603	2.9867	1.6364
45.86	1.9814	3.0372	1.6869
46.61	2.0168	3.0874	1.7371
47.36	2.0553	3.1377	1.7874
48.11	2.0921	3.1881	1.8378
48.87	2.1185	3.2384	1.8881
49.62	2.1525	3.2887	1.9383
50.37	2.1821	3.3389	1.9886
51.12	2.2103	3.3893	2.0390
51.87	2.2360	3.4398	2.0894
52.62	2.2618	3.4898	2.1395
53.38	2.2877	3.5403	2.1899
54.13	2.3126	3.5905	2.2402
54.88	2.3381	3.6408	2.2905
55.63	2.3629	3.6911	2.3408
56.38	2.3867	3.7415	2.3912
57.14	2.4092	3.7918	2.4415
57.89	2.4297	3.8422	2.4919
58.64	2.4450	3.8925	2.5422
59.39	2.4652	3.9427	2.5924
60.14	2.4875	3.9931	2.6428
60.89	2.5072	4.0435	2.6932
61.65	2.5168	4.0937	2.7434
62.40	2.5321	4.1440	2.7937
63.15	2.5495	4.1944	2.8441
63.90	2.5668	4.2446	2.8943
64.65	2.5842	4.2951	2.9448
65.40	2.5980	4.3453	2.9950
66.16	2.6125	4.3956	3.0453
66.91	2.6259	4.4459	3.0956
67.66	2.6388	4.4962	3.1459
68.41	2.6518	4.5465	3.1962
69.16	2.6666	4.5968	3.2465
69.92	2.6808	4.6473	3.2970
70.67	2.6948	4.6974	3.3471
71.42	2.7072	4.7477	3.3974
72.17	2.7177	4.7982	3.4479
72.92	2.7287	4.8485	3.4982
73.67	2.7408	4.8987	3.5484
74.43	2.7529	4.9490	3.5987
75.18	2.7646	4.9994	3.6491
75.93	2.7767	5.0496	3.6993
76.68	2.7886	5.1001	3.7498
77.43	2.7984	5.1503	3.8000
78.18	2.8079	5.2007	3.8504
78.94	2.8174	5.2509	3.9006
79.69	2.8288	5.3013	3.9510
80.44	2.8322	5.3515	4.0012
81.19	2.8374	5.4018	4.0515
81.94	2.8391	5.4522	4.1019
82.70	2.8412	5.5025	4.1522
83.45	2.8447	5.5527	4.2024
84.20	2.8489	5.6031	4.2528
84.95	2.8570	5.6535	4.3032
85.70	2.8620	5.7037	4.3534
86.45	2.8715	5.7542	4.4038
87.21	2.8816	5.8045	4.4542
87.96	2.8931	5.8547	4.5044
88.71	2.9078	5.9050	4.5547
89.46	2.9182	5.9555	4.6052
90.21	2.9286	6.0057	4.6554
90.96	2.9401	6.0560	4.7057
91.72	2.9528	6.1064	4.7561
92.47	2.9656	6.1567	4.8064
93.22	2.9781	6.2070	4.8566
93.97	2.9901	6.2572	4.9069
94.72	3.0000	6.3078	4.9574
95.48	3.0089	6.3580	5.0077
96.23	3.0168	6.4082	5.0579
96.98	3.0172	6.4586	5.1083
97.73	3.0206	6.5088	5.1585
98.48	3.0276	6.5592	5.2088
99.23	3.0353	6.6094	5.2591
99.99	3.0437	6.6599	5.3096
100.7	3.0524	6.7101	5.3598
101.5	3.0675	6.7605	5.4102
102.2	3.0811	6.8107	5.4604
103.0	3.0902	6.8610	5.5107
103.7	3.1004	6.9113	5.5609
104.5	3.1110	6.9617	5.6114
105.2	3.1221	7.0119	5.6616
106.0	3.1332	7.0623	5.7119
106.8	3.1443	7.1126	5.7623
107.5	3.1552	7.1630	5.8127
108.3	3.1661	7.2133	5.8630
109.0	3.1818	7.2637	5.9133
109.8	3.1943	7.3140	5.9637
110.5	3.2067	7.3642	6.0139
111.3	3.2186	7.4145	6.0642
112.0	3.2304	7.4649	6.1146
112.8	3.2421	7.5152	6.1649
113.5	3.2535	7.5655	6.2151
114.3	3.2649	7.6157	6.2654
115.0	3.2762	7.6661	6.3158
115.8	3.2823	7.7164	6.3661
116.5	3.2918	7.7667	6.4164
117.3	3.3043	7.8170	6.4667
118.0	3.3143	7.8672	6.5169
118.8	3.3242	7.9176	6.5673
119.5	3.3368	7.9680	6.6177
120.3	3.3443	8.0182	6.6679
121.0	3.3520	8.0685	6.7182
121.8	3.3609	8.1189	6.7686
122.5	3.3697	8.1694	6.8191
123.3	3.3728	8.2196	6.8693
124.0	3.3772	8.2699	6.9196
124.8	3.3848	8.3201	6.9698
125.5	3.3942	8.3704	7.0201
126.3	3.4063	8.4208	7.0705
127.1	3.4187	8.4710	7.1207
127.8	3.4323	8.5215	7.1712
128.6	3.4480	8.5718	7.2215
129.3	3.4628	8.6222	7.2719
130.1	3.4768	8.6725	7.3222
130.8	3.4903	8.7228	7.3725
131.6	3.5037	8.7731	7.4228
132.3	3.5171	8.8234	7.4731
133.1	3.5272	8.8737	7.5234
133.8	3.5393	8.9240	7.5737
134.6	3.5515	8.9743	7.6240
135.3	3.5636	9.0247	7.6743
136.1	3.5743	9.0750	7.7246
136.8	3.5848	9.1253	7.7750
137.6	3.5958	9.1755	7.8252
138.3	3.6071	9.2259	7.8756
139.1	3.6193	9.2762	7.9259
139.8	3.6314	9.3264	7.9761
140.6	3.6414	9.3768	8.0265
141.3	3.6514	9.4270	8.0767
142.1	3.6583	9.4775	8.1272
142.8	3.6677	9.5277	8.1774
143.6	3.6777	9.5780	8.2277
144.3	3.6877	9.6283	8.2780
145.1	3.6979	9.6787	8.3283
145.8	3.7086	9.7291	8.3788
146.6	3.7193	9.7793	8.4290
147.3	3.7292	9.8296	8.4792
148.1	3.7392	9.8800	8.5297
148.9	3.7483	9.9303	8.5799
149.6		9.9807	8.6303

File: Fm2_22.txt
Time (s)	Load (N)	Extension (mm)	Deflection from Preload (mm)
0.0000
0.8433	0.0012724	0.022758	-0.69614
1.687	0.019414	0.079335	-0.63956
2.530	0.037863	0.13577	-0.58313
3.373	0.058483	0.19222	-0.52668
4.217	0.083426	0.24846	-0.47043
5.060	0.11372	0.30499	-0.41390
5.903	0.15263	0.36145	-0.35745
6.747	0.19348	0.41792	-0.30098
7.590	0.24074	0.47443	-0.24447
8.433	0.29687	0.53082	-0.18808
9.277	0.35379	0.58721	-0.13169
10.12	0.41406	0.64368	-0.075223
10.96	0.47733	0.70015	-0.018753
11.81	0.54589	0.75656	0.037658
12.65	0.61547	0.81294	0.094039
13.49	0.68789	0.86952	0.15062
14.34	0.76097	0.92592	0.20702
15.18	0.83251	0.98232	0.26342
16.02	0.90435	1.0387	0.31983
16.87	0.97802	1.0953	0.37640
17.71	1.0513	1.1517	0.43280
18.55	1.1224	1.2082	0.48931
19.40	1.1879	1.2646	0.54573
20.24	1.2447	1.3210	0.60212
21.08	1.3066	1.3774	0.65852
21.93	1.3683	1.4340	0.71506
22.77	1.4272	1.4904	0.77147
23.61	1.4567	1.5468	0.82788
24.46	1.5127	1.6033	0.88444
25.30	1.5663	1.6597	0.94081
26.14	1.6151	1.7161	0.99719
26.99	1.6576	1.7727	1.0538
27.83	1.6941	1.8291	1.1102
28.67	1.7239	1.8855	1.1666
29.52	1.7602	1.9420	1.2231
30.36	1.7951	1.9985	1.2796
31.20	1.8261	2.0548	1.3359
32.05	1.8455	2.1113	1.3924
32.89	1.8632	2.1678	1.4489
33.73	1.8913	2.2241	1.5052
34.58	1.9195	2.2806	1.5617
35.42	1.9437	2.3370	1.6181
36.26	1.9665	2.3935	1.6746
37.11	1.9873	2.4498	1.7309
37.95	2.0043	2.5064	1.7875
38.79	2.0226	2.5628	1.8439
39.64	2.0397	2.6191	1.9002
40.48	2.0561	2.6757	1.9568
41.32	2.0741	2.7321	2.0132
42.17	2.0869	2.7886	2.0697
43.01	2.0983	2.8450	2.1261
43.85	2.1109	2.9014	2.1825
44.70	2.1243	2.9579	2.2390
45.54	2.1376	3.0144	2.2955
46.38	2.1500	3.0707	2.3518
47.23	2.1617	3.1272	2.4083
48.07	2.1702	3.1837	2.4648
48.91	2.1789	3.2402	2.5213
49.76	2.1922	3.2965	2.5776
50.60	2.2054	3.3531	2.6342
51.44	2.2187	3.4094	2.6905
52.29	2.2319	3.4659	2.7470
53.13	2.2447	3.5223	2.8034
53.97	2.2516	3.5788	2.8599
54.82	2.2640	3.6351	2.9162
55.66	2.2745	3.6918	2.9729
56.50	2.2830	3.7482	3.0293
57.35	2.2934	3.8046	3.0857
58.19	2.3022	3.8609	3.1421
59.03	2.3081	3.9175	3.1986
59.88	2.3197	3.9740	3.2551
60.72	2.3311	4.0304	3.3115
61.56	2.3424	4.0867	3.3678
62.41	2.3579	4.1433	3.4244
63.25	2.3697	4.1997	3.4808
64.09	2.3815	4.2561	3.5372
64.94	2.3932	4.3125	3.5936
65.78	2.3970	4.3689	3.6500
66.62	2.4038	4.4253	3.7064
67.47	2.4123	4.4820	3.7631
68.31	2.4220	4.5382	3.8193
69.15	2.4312	4.5948	3.8759
70.00	2.4364	4.6512	3.9323
70.84	2.4424	4.7076	3.9887
71.68	2.4488	4.7641	4.0452
72.53	2.4454	4.8204	4.1015
73.37	2.4236	4.8769	4.1580
74.21	2.4239	4.9334	4.2145
75.06	2.4353	4.9899	4.2710
75.90	2.4497	5.0463	4.3274
76.74	2.4641	5.1027	4.3838
77.59	2.4785	5.1592	4.4403
78.43	2.4922	5.2156	4.4967
79.27	2.5038	5.2720	4.5531
80.12	2.5132	5.3286	4.6097
80.96	2.5242	5.3850	4.6661
81.80	2.5337	5.4415	4.7226
82.65	2.5412	5.4979	4.7790
83.49	2.5493	5.5544	4.8355
84.33	2.5575	5.6106	4.8917
85.18	2.5657	5.6672	4.9483
86.02	2.5759	5.7237	5.0048
86.86	2.5820	5.7800	5.0611
87.71	2.5844	5.8367	5.1178
88.55	2.5871	5.8930	5.1741
89.39	2.5926	5.9494	5.2305
90.24	2.6000	6.0059	5.2870
91.08	2.6114	6.0623	5.3434
91.92	2.6251	6.1189	5.4000
92.77	2.6350	6.1751	5.4562
93.61	2.6450	6.2316	5.5127
94.45	2.6560	6.2880	5.5692
95.30	2.6675	6.3445	5.6256
96.14	2.6787	6.4010	5.6821
96.98	2.6899	6.4574	5.7385
97.83	2.7012	6.5139	5.7950
98.67	2.7143	6.5703	5.8514
99.52	2.7275	6.6267	5.9078
100.4	2.7392	6.6832	5.9643
101.2	2.7509	6.7397	6.0208
102.0	2.7653	6.7962	6.0773
102.9	2.7756	6.8525	6.1336
103.7	2.7856	6.9089	6.1900
104.6	2.7951	6.9654	6.2465
105.4	2.8045	7.0219	6.3030
106.3	2.8141	7.0783	6.3594
107.1	2.8237	7.1348	6.4159
107.9	2.8345	7.1911	6.4722
108.8	2.8465	7.2476	6.5287
109.6	2.8625	7.3041	6.5852
110.5	2.8733	7.3604	6.6415
111.3	2.8850	7.4170	6.6981
112.2	2.8954	7.4734	6.7545
113.0	2.9058	7.5298	6.8109
113.9	2.9162	7.5862	6.8673
114.7	2.9270	7.6428	6.9239
115.5	2.9377	7.6992	6.9803
116.4	2.9494	7.7556	7.0367
117.2	2.9618	7.8120	7.0932
118.1	2.9739	7.8684	7.1495
118.9	2.9859	7.9249	7.2060
119.8	2.9980	7.9814	7.2625
120.6	3.0096	8.0378	7.3189
121.4	3.0205	8.0944	7.3755
122.3	3.0314	8.1507	7.4318
123.1	3.0422	8.2072	7.4883
124.0	3.0532	8.2636	7.5447
124.8	3.0646	8.3200	7.6011
125.7	3.0761	8.3764	7.6575
126.5	3.0875	8.4330	7.7141
127.3	3.0998	8.4893	7.7704
128.2	3.1133	8.5458	7.8269
129.0	3.1246	8.6024	7.8835
129.9	3.1359	8.6587	7.9398
130.7	3.1485	8.7152	7.9963
131.6	3.1555	8.7716	8.0527
132.4	3.1696	8.8280	8.1091
133.2	3.1836	8.8846	8.1657
134.1	3.1952	8.9410	8.2221
134.9	3.2056	8.9973	8.2784
135.8	3.2161	9.0538	8.3349
136.6	3.2289	9.1103	8.3914
137.5	3.2421	9.1667	8.4478
138.3	3.2539	9.2231	8.5042
139.2	3.2684	9.2795	8.5606
140.0	3.2820	9.3361	8.6172
140.8	3.2957	9.3925	8.6736
141.7	3.3090	9.4488	8.7299
142.5	3.3221	9.5053	8.7864
143.4	3.3352	9.5619	8.8430
144.2	3.3471	9.6182	8.8993
145.1	3.3596	9.6747	8.9558
145.9	3.3696	9.7311	9.0122
146.7	3.3825	9.7877	9.0688
147.6	3.3955	9.8440	9.1251
148.4	3.4084	9.9005	9.1816
149.3	3.4208	9.9570	9.2381
150.1	3.4335	10.013	9.2946
151.0	3.4446	10.070	9.3509
151.8	3.4525	10.126	9.4073
152.6	3.4609	10.183	9.4638
153.5	3.4758	10.239	9.5203
154.3	3.4888	10.296	9.5766
155.2	3.5032	10.352	9.6331
156.0	3.5187	10.408	9.6895
156.9	3.5343	10.465	9.7460
157.7	3.5502	10.521	9.8025
158.5	3.5650	10.578	9.8588
159.4	3.5791	10.634	9.9153
160.2	3.5965	10.691	9.9718
161.1	3.6090	10.747	10.028
161.9	3.6216	10.804	10.085
162.8	3.6379	10.860	10.141
163.6	3.6521	10.916	10.198
164.5	3.6670	10.973	10.254
165.3	3.6819	11.029	10.310
166.1	3.6965	11.086	10.367
167.0	3.7110	11.142	10.423
167.8	0.37575

File: Fm2_23.txt
Time (s)	Load (N)	Extension (mm)	Deflection from Preload (mm)
0.0000
0.6120	-0.0027211	0.0073078	-1.5592
1.224	0.0087252	0.048592	-1.5179
1.836	0.019293	0.089479	-1.4770
2.448	0.028693	0.13047	-1.4360
3.060	0.038593	0.17132	-1.3952
3.672	0.048676	0.21232	-1.3542
4.284	0.058759	0.25332	-1.3132
4.896	0.068841	0.29436	-1.2721
5.508	0.078924	0.33533	-1.2312
6.120	0.091250	0.37624	-1.1902
6.732	0.10093	0.41720	-1.1493
7.344	0.11163	0.45813	-1.1084
7.956	0.12233	0.49906	-1.0674
8.568	0.13304	0.53999	-1.0265
9.180	0.14374	0.58114	-0.98535
9.792	0.15463	0.62205	-0.94444
10.40	0.16702	0.66286	-0.90363
11.02	0.17940	0.70391	-0.86258
11.63	0.19179	0.74479	-0.82169
12.24	0.20515	0.78586	-0.78063
12.85	0.21854	0.82684	-0.73965
13.46	0.23195	0.86782	-0.69866
14.08	0.24555	0.90876	-0.65773
14.69	0.25914	0.94970	-0.61679
15.30	0.27274	0.99062	-0.57587
15.91	0.28633	1.0316	-0.53488
16.52	0.29328	1.0725	-0.49397
17.14	0.30792	1.1135	-0.45294
17.75	0.32257	1.1544	-0.41205
18.36	0.34283	1.1955	-0.37103
18.97	0.35948	1.2365	-0.33003
19.58	0.37357	1.2773	-0.28920
20.20	0.39068	1.3184	-0.24813
20.81	0.40831	1.3592	-0.20724
21.42	0.42741	1.4003	-0.16623
22.03	0.44651	1.4411	-0.12537
22.64	0.46594	1.4821	-0.084401
23.26	0.47549	1.5232	-0.043316
23.87	0.49867	1.5641	-0.0023391
24.48	0.52187	1.6050	0.038506
25.09	0.54484	1.6461	0.079563
25.70	0.56599	1.6870	0.12047
26.32	0.58799	1.7279	0.16144
26.93	0.61169	1.7689	0.20239
27.54	0.63365	1.8098	0.24334
28.15	0.64660	1.8507	0.28421
28.76	0.66479	1.8917	0.32522
29.38	0.66805	1.9327	0.36617
29.99	0.68739	1.9737	0.40720
30.60	0.70674	2.0148	0.44827
31.21	0.72609	2.0556	0.48914
31.82	0.74660	2.0967	0.53024
32.44	0.77179	2.1376	0.57110
33.05	0.79183	2.1786	0.61212
33.66	0.81187	2.2194	0.65296
34.27	0.83190	2.2604	0.69392
34.88	0.85177	2.3014	0.73492
35.50	0.86807	2.3424	0.77588
36.11	0.88555	2.3833	0.81685
36.72	0.90302	2.4242	0.85768
37.33	0.92065	2.4651	0.89863
37.94	0.93948	2.5062	0.93970
38.56	0.95530	2.5471	0.98056
39.17	0.97106	2.5882	1.0217
39.78	0.98661	2.6291	1.0627
40.39	1.0021	2.6700	1.1035
41.00	1.0175	2.7109	1.1444
41.62	1.0329	2.7519	1.1854
42.23	1.0482	2.7930	1.2265
42.84	1.0574	2.8339	1.2674
43.45	1.0714	2.8747	1.3083
44.06	1.0853	2.9158	1.3493
44.68	1.0993	2.9567	1.3902
45.29	1.1117	2.9977	1.4312
45.90	1.1234	3.0386	1.4721
46.51	1.1346	3.0797	1.5132
47.12	1.1458	3.1206	1.5541
47.74	1.1569	3.1616	1.5951
48.35	1.1678	3.2025	1.6360
48.96	1.1786	3.2434	1.6769
49.57	1.1893	3.2845	1.7180
50.18	1.1992	3.3253	1.7588
50.80	1.2091	3.3662	1.7998
51.41	1.2191	3.4073	1.8408
52.02	1.2285	3.4482	1.8817
52.63	1.2377	3.4891	1.9226
53.24	1.2441	3.5300	1.9635
53.86	1.2523	3.5710	2.0045
54.47	1.2605	3.6121	2.0456
55.08	1.2687	3.6531	2.0866
55.69	1.2768	3.6939	2.1274
56.30	1.2852	3.7350	2.1685
56.92	1.2937	3.7760	2.2095
57.53	1.3022	3.8169	2.2504
58.14	1.3107	3.8579	2.2914
58.75	1.3189	3.8988	2.3323
59.36	1.3262	3.9398	2.3733
59.98	1.3335	3.9807	2.4142
60.59	1.3408	4.0217	2.4552
61.20	1.3482	4.0626	2.4961
61.81	1.3542	4.1037	2.5372
62.42	1.3593	4.1447	2.5782
63.04	1.3645	4.1856	2.6191
63.65	1.3697	4.2264	2.6599
64.26	1.3741	4.2675	2.7010
64.87	1.3779	4.3084	2.7419
65.48	1.3817	4.3492	2.7827
66.10	1.3875	4.3904	2.8239
66.71	1.3934	4.4312	2.8648
67.32	1.3992	4.4723	2.9058
67.93	1.4050	4.5133	2.9468
68.54	1.4108	4.5542	2.9877
69.16	1.4173	4.5952	3.0287
69.77	1.4237	4.6362	3.0697
70.38	1.4302	4.6770	3.1105
70.99	1.4366	4.7179	3.1514
71.60	1.4427	4.7590	3.1925
72.22	1.4488	4.7999	3.2335
72.83	1.4566	4.8408	3.2743
73.44	1.4620	4.8818	3.3153
74.05	1.4667	4.9228	3.3563
74.66	1.4714	4.9637	3.3972
75.28	1.4757	5.0047	3.4382
75.89	1.4757	5.0458	3.4793
76.50	1.4757	5.0867	3.5202
77.11	1.4757	5.1275	3.5610
77.72	1.4770	5.1686	3.6021
78.34	1.4798	5.2095	3.6430
78.95	1.4831	5.2505	3.6840
79.56	1.4879	5.2913	3.7248
80.17	1.4932	5.3323	3.7658
80.78	1.4996	5.3734	3.8069
81.40	1.5049	5.4143	3.8478
82.01	1.5102	5.4552	3.8887
82.62	1.5155	5.4962	3.9297
83.23	1.5208	5.5372	3.9707
83.84	1.5261	5.5782	4.0118
84.46	1.5314	5.6192	4.0527
85.07	1.5368	5.6601	4.0936
85.68	1.5421	5.7011	4.1347
86.29	1.5478	5.7420	4.1755
86.90	1.5510	5.7829	4.2164
87.52	1.5542	5.8240	4.2575
88.13	1.5574	5.8650	4.2985
88.74	1.5612	5.9059	4.3394
89.35	1.5651	5.9469	4.3804
89.96	1.5690	5.9878	4.4214
90.58	1.5728	6.0287	4.4622
91.19	1.5767	6.0698	4.5033
91.80	1.5792	6.1106	4.5442
92.41	1.5814	6.1516	4.5851
93.02	1.5839	6.1926	4.6261
93.64	1.5870	6.2335	4.6670
94.25	1.5907	6.2744	4.7079
94.86	1.5947	6.3154	4.7490
95.47	1.5988	6.3565	4.7900
96.08	1.6048	6.3973	4.8308
96.70	1.6074	6.4384	4.8720
97.31	1.6067	6.4793	4.9129
97.92	1.6080	6.5203	4.9538
98.53	1.6145	6.5613	4.9948
99.14	1.6178	6.6022	5.0357
99.76	1.6212	6.6430	5.0765
100.4	1.6245	6.6840	5.1175
101.0	1.6282	6.7251	5.1586
101.6	1.6329	6.7661	5.1996
102.2	1.6377	6.8070	5.2406
102.8	1.6424	6.8478	5.2813
103.4	1.6482	6.8889	5.3224
104.0	1.6542	6.9297	5.3632
104.7	1.6601	6.9709	5.4044
105.3	1.6654	7.0117	5.4452
105.9	1.6705	7.0527	5.4862
106.5	1.6757	7.0938	5.5273
107.1	1.6808	7.1348	5.5683
107.7	1.6859	7.1756	5.6091
108.3	1.6915	7.2166	5.6501
108.9	1.6972	7.2576	5.6911
109.5	1.7029	7.2985	5.7320
110.2	1.7052	7.3394	5.7729
110.8	1.7099	7.3805	5.8140
111.4	1.7154	7.4214	5.8549
112.0	1.7208	7.4623	5.8958
112.6	1.7261	7.5032	5.9367
113.2	1.7277	7.5444	5.9779
113.8	1.7328	7.5853	6.0188
114.4	1.7379	7.6262	6.0597
115.1	1.7430	7.6672	6.1007
115.7	1.7480	7.7081	6.1416
116.3	1.7528	7.7490	6.1825
116.9	1.7576	7.7901	6.2236
117.5	1.7624	7.8310	6.2645
118.1	1.7671	7.8720	6.3055
118.7	1.7709	7.9129	6.3464
119.3	1.7747	7.9538	6.3873
120.0	1.7791	7.9949	6.4284
120.6	1.7834	8.0357	6.4692
121.2	1.7877	8.0767	6.5102
121.8	0.068665

File: Fm2_24.txt
Time (s)	Load (N)	Extension (mm)	Deflection from Preload (mm)
0.0000
0.3459	-0.00095043	0.000028207	-0.96934
0.6918	0.0000091987	0.010469	-0.95889
1.038	0.0074299	0.033781	-0.93558
1.384	0.017307	0.056926	-0.91244
1.730	0.027184	0.080022	-0.88934
2.075	0.037061	0.10314	-0.86622
2.421	0.046938	0.12638	-0.84298
2.767	0.053752	0.14952	-0.81985
3.113	0.061815	0.17267	-0.79669
3.459	0.071479	0.19582	-0.77354
3.805	0.081143	0.21901	-0.75035
4.151	0.090808	0.24204	-0.72732
4.497	0.10047	0.26525	-0.70411
4.843	0.11014	0.28842	-0.68095
5.189	0.11994	0.31152	-0.65784
5.535	0.13047	0.33466	-0.63471
5.881	0.14099	0.35779	-0.61157
6.226	0.15151	0.38101	-0.58835
6.572	0.16204	0.40413	-0.56523
6.918	0.17256	0.42729	-0.54208
7.264	0.18309	0.45039	-0.51897
7.610	0.19361	0.47358	-0.49579
7.956	0.20524	0.49673	-0.47263
8.302	0.21700	0.51987	-0.44949
8.648	0.22876	0.54313	-0.42624
8.994	0.24053	0.56626	-0.40311
9.340	0.25229	0.58939	-0.37997
9.686	0.26472	0.61254	-0.35683
10.03	0.27790	0.63566	-0.33370
10.38	0.29108	0.65883	-0.31053
10.72	0.30426	0.68193	-0.28743
11.07	0.31743	0.70515	-0.26421
11.42	0.33213	0.72831	-0.24105
11.76	0.34839	0.75150	-0.21786
12.11	0.36367	0.77469	-0.19467
12.45	0.37808	0.79787	-0.17150
12.80	0.39286	0.82084	-0.14852
13.14	0.40853	0.84412	-0.12525
13.49	0.42421	0.86728	-0.10208
13.84	0.43988	0.89034	-0.079022
14.18	0.45926	0.91334	-0.056020
14.53	0.47617	0.93671	-0.032653
14.87	0.49309	0.95988	-0.0094795
15.22	0.51000	0.98305	0.013690
15.57	0.52691	1.0062	0.036842
15.91	0.54244	1.0293	0.059945
16.26	0.56206	1.0524	0.083032
16.60	0.57837	1.0755	0.10612
16.95	0.59534	1.0987	0.12929
17.30	0.61330	1.1219	0.15252
17.64	0.63126	1.1451	0.17570
17.99	0.64897	1.1683	0.19889
18.33	0.66624	1.1913	0.22191
18.68	0.68351	1.2145	0.24512
19.03	0.68585	1.2375	0.26816
19.37	0.70317	1.2607	0.29130
19.72	0.72086	1.2839	0.31450
20.06	0.73944	1.3071	0.33778
20.41	0.75803	1.3303	0.36097
20.75	0.77704	1.3534	0.38399
21.10	0.79682	1.3766	0.40724
21.45	0.81348	1.3998	0.43042
21.79	0.83015	1.4228	0.45344
22.14	0.84783	1.4459	0.47655
22.48	0.86628	1.4691	0.49971
22.83	0.88395	1.4922	0.52285
23.18	0.89999	1.5154	0.54605
23.52	0.91536	1.5385	0.56919
23.87	0.93123	1.5617	0.59235
24.21	0.94726	1.5849	0.61551
24.56	0.96134	1.6080	0.63867
24.91	0.96787	1.6312	0.66187
25.25	0.98419	1.6544	0.68508
25.60	1.0028	1.6775	0.70810
25.94	1.0214	1.7007	0.73129
26.29	1.0400	1.7238	0.75444
26.64	1.0586	1.7469	0.77752
26.98	1.0782	1.7700	0.80061
27.33	1.0978	1.7933	0.82394
27.67	1.1163	1.8165	0.84714
28.02	1.1344	1.8396	0.87024
28.36	1.1526	1.8626	0.89328
28.71	1.1711	1.8859	0.91653
29.06	1.1889	1.9089	0.93958
29.40	1.2049	1.9321	0.96271
29.75	1.2213	1.9553	0.98598
30.09	1.2376	1.9785	1.0091
30.44	1.2540	2.0017	1.0323
30.79	1.2718	2.0248	1.0555
31.13	1.2897	2.0479	1.0786
31.48	1.3076	2.0711	1.1017
31.82	1.3253	2.0943	1.1250
32.17	1.3430	2.1173	1.1480
32.52	1.3599	2.1405	1.1711
32.86	1.3805	2.1636	1.1943
33.21	1.3977	2.1869	1.2175
33.55	1.4148	2.2100	1.2406
33.90	1.4319	2.2332	1.2638
34.25	1.4489	2.2563	1.2869
34.59	1.4654	2.2794	1.3100
34.94	1.4820	2.3025	1.3331
35.28	1.4985	2.3258	1.3565
35.63	1.5177	2.3490	1.3796
35.98	1.5296	2.3721	1.4027
36.32	1.5390	2.3952	1.4258
36.67	1.5554	2.4184	1.4490
37.01	1.5718	2.4415	1.4721
37.36	1.5882	2.4646	1.4952
37.70	1.5953	2.4877	1.5184
38.05	1.6096	2.5109	1.5415
38.40	1.6240	2.5340	1.5647
38.74	1.6381	2.5573	1.5879
39.09	1.6518	2.5804	1.6111
39.43	1.6654	2.6036	1.6342
39.78	1.6818	2.6266	1.6572
40.13	1.6991	2.6499	1.6805
40.47	1.7149	2.6731	1.7037
40.82	1.7302	2.6963	1.7269
41.16	1.7462	2.7193	1.7499
41.51	1.7621	2.7425	1.7732
41.86	1.7781	2.7656	1.7962
42.20	1.7940	2.7888	1.8195
42.55	1.8098	2.8119	1.8425
42.89	1.8257	2.8350	1.8656
43.24	1.8395	2.8581	1.8887
43.59	1.8533	2.8814	1.9120
43.93	1.8670	2.9045	1.9351
44.28	1.8751	2.9276	1.9582
44.62	1.8427	2.9509	1.9815
44.97	1.8600	2.9740	2.0047
45.31	1.8773	2.9972	2.0278
45.66	1.8946	3.0204	2.0510
46.01	1.9118	3.0434	2.0740
46.35	1.9282	3.0666	2.0972
46.70	1.9436	3.0897	2.1203
47.04	1.9538	3.1128	2.1435
47.39	1.9686	3.1361	2.1668
47.74	1.9833	3.1591	2.1898
48.08	1.9961	3.1823	2.2130
48.43	2.0087	3.2055	2.2362
48.77	2.0195	3.2286	2.2593
49.12	2.0298	3.2517	2.2824
49.47	2.0409	3.2749	2.3055
49.81	2.0519	3.2980	2.3287
50.16	2.0626	3.3213	2.3520
50.50	2.0676	3.3446	2.3752
50.85	2.0506	3.3676	2.3982
51.20	2.0564	3.3908	2.4214
51.54	2.0667	3.4139	2.4445
51.89	2.0795	3.4369	2.4676
52.23	2.0926	3.4601	2.4907
52.58	2.1052	3.4833	2.5139
52.92	2.1160	3.5065	2.5371
53.27	2.1268	3.5297	2.5603
53.62	2.1376	3.5528	2.5835
53.96	2.1484	3.5759	2.6065
54.31	2.1592	3.5990	2.6296
54.65	2.1700	3.6222	2.6529
55.00	2.1808	3.6455	2.6761
55.35	2.1916	3.6685	2.6992
55.69	2.2024	3.6916	2.7222
56.04	2.1899	3.7147	2.7454
56.38	2.1877	3.7380	2.7686
56.73	2.1876	3.7611	2.7917
57.08	2.1939	3.7844	2.8150
57.42	2.2066	3.8074	2.8381
57.77	2.2161	3.8305	2.8611
58.11	2.2256	3.8538	2.8844
58.46	2.2350	3.8769	2.9076
58.81	2.2440	3.9000	2.9306
59.15	2.2525	3.9231	2.9537
59.50	2.2612	3.9462	2.9769
59.84	2.2712	3.9695	3.0001
60.19	2.2812	3.9927	3.0234
60.53	2.2912	4.0158	3.0464
60.88	2.3012	4.0388	3.0695
61.23	2.3089	4.0621	3.0927
61.57	2.3154	4.0853	3.1160
61.92	2.3236	4.1083	3.1389
62.26	2.3331	4.1315	3.1621
62.61	2.3460	4.1546	3.1852
62.96	2.3541	4.1777	3.2083
63.30	2.3622	4.2010	3.2317
63.65	2.3509	4.2242	3.2548
63.99	2.3548	4.2473	3.2779
64.34	2.3621	4.2705	3.3011
64.69	2.3719	4.2935	3.3241
65.03	2.3817	4.3168	3.3475
65.38	2.3915	4.3399	3.3705
65.72	2.4014	4.3631	3.3938
66.07	2.4113	4.3863	3.4169
66.42	2.4211	4.4094	3.4401
66.76	2.4310	4.4326	3.4632
67.11	2.4390	4.4558	3.4864
67.45	2.4468	4.4788	3.5094
67.80	2.4547	4.5020	3.5326
68.15	2.4552	4.5250	3.5557
68.49	2.4399	4.5481	3.5788
68.84		4.5715	3.6022