Folder: Root (part 6)

File: Fm2_39.txt
Time (s)	Load (N)	Extension (mm)	Deflection from Preload (mm)
0.0000
0.6764	0.017166	0.010531	-0.66292
1.353	0.022828	0.055960	-0.61749
2.029	0.031901	0.10118	-0.57227
2.706	0.043874	0.14655	-0.52690
3.382	0.056350	0.19177	-0.48167
4.058	0.070435	0.23701	-0.43644
4.735	0.087768	0.28221	-0.39124
5.411	0.11109	0.32751	-0.34593
6.087	0.13986	0.37294	-0.30050
6.764	0.17730	0.41802	-0.25542
7.440	0.22218	0.46341	-0.21004
8.117	0.27206	0.50864	-0.16481
8.793	0.32957	0.55399	-0.11945
9.469	0.38986	0.59908	-0.074370
10.15	0.45560	0.64433	-0.029119
10.82	0.52556	0.68973	0.016285
11.50	0.60099	0.73499	0.061546
12.17	0.67624	0.78030	0.10685
12.85	0.75109	0.82543	0.15198
13.53	0.82991	0.87071	0.19726
14.20	0.90749	0.91614	0.24269
14.88	0.98553	0.96127	0.28783
15.56	1.0626	1.0067	0.33325
16.23	1.1393	1.0519	0.37843
16.91	1.2152	1.0972	0.42378
17.59	1.2892	1.1424	0.46900
18.26	1.3633	1.1877	0.51425
18.94	1.4361	1.2329	0.55942
19.62	1.5069	1.2782	0.60477
20.29	1.5775	1.3235	0.65004
20.97	1.6479	1.3688	0.69539
21.64	1.7183	1.4140	0.74058
22.32	1.7896	1.4593	0.78588
23.00	1.8565	1.5046	0.83116
23.67	1.9233	1.5499	0.87647
24.35	1.9904	1.5951	0.92169
25.03	2.0582	1.6404	0.96698
25.70	2.1209	1.6856	1.0121
26.38	2.1851	1.7310	1.0575
27.06	2.2481	1.7761	1.1027
27.73	2.3116	1.8216	1.1481
28.41	2.3723	1.8666	1.1932
29.08	2.4310	1.9120	1.2385
29.76	2.4896	1.9572	1.2838
30.44	2.5500	2.0025	1.3290
31.11	2.6060	2.0479	1.3744
31.79	2.6644	2.0932	1.4197
32.47	2.7192	2.1383	1.4649
33.14	2.7734	2.1835	1.5101
33.82	2.8259	2.2289	1.5555
34.50	2.8773	2.2742	1.6008
35.17	2.9290	2.3193	1.6458
35.85	2.9789	2.3646	1.6911
36.52	3.0286	2.4099	1.7364
37.20	3.0782	2.4551	1.7817
37.88	3.1243	2.5005	1.8270
38.55	3.1702	2.5458	1.8723
39.23	3.2167	2.5909	1.9175
39.91	3.2616	2.6362	1.9627
40.58	3.3055	2.6815	2.0080
41.26	3.3481	2.7268	2.0534
41.94	3.3904	2.7720	2.0986
42.61	3.4355	2.8175	2.1440
43.29	3.4752	2.8625	2.1891
43.96	3.5060	2.9079	2.2345
44.64	3.5385	2.9532	2.2797
45.32	3.5711	2.9984	2.3249
45.99	3.6011	3.0436	2.3702
46.67	3.6307	3.0890	2.4156
47.35	3.6595	3.1342	2.4607
48.02	3.6872	3.1795	2.5060
48.70	3.7134	3.2248	2.5513
49.38	3.7394	3.2701	2.5967
50.05	3.7606	3.3154	2.6419
50.73	3.7830	3.3606	2.6872
51.40	3.8037	3.4058	2.7324
52.08	3.8240	3.4511	2.7776
52.76	3.8410	3.4963	2.8228
53.43	3.8531	3.5418	2.8683
54.11	3.8646	3.5869	2.9135
54.79	3.8833	3.6322	2.9587
55.46	3.8951	3.6774	3.0039
56.14	3.9053	3.7227	3.0493
56.82	3.9206	3.7680	3.0946
57.49	3.9357	3.8132	3.1398
58.17	3.9505	3.8586	3.1851
58.85	3.9571	3.9038	3.2304
59.52	3.9620	3.9492	3.2757
60.20	3.9727	3.9944	3.3209
60.87	3.9887	4.0396	3.3662
61.55	4.0012	4.0850	3.4115
62.23	4.0130	4.1301	3.4566
62.90	4.0229	4.1755	3.5020
63.58	4.0366	4.2206	3.5471
64.26	4.0510	4.2660	3.5925
64.93	4.0653	4.3112	3.6377
65.61	4.0795	4.3565	3.6830
66.29	4.0938	4.4018	3.7283
66.96	4.1080	4.4471	3.7737
67.64	4.1226	4.4922	3.8187
68.31	4.1415	4.5375	3.8641
68.99	4.1561	4.5829	3.9095
69.67	4.1707	4.6282	3.9547
70.34	4.1841	4.6733	3.9999
71.02	4.1960	4.7186	4.0451
71.70	4.2095	4.7640	4.0905
72.37	4.2238	4.8092	4.1358
73.05	4.2409	4.8545	4.1811
73.73	4.2579	4.8996	4.2262
74.40	4.2733	4.9449	4.2715
75.08	4.2897	4.9901	4.3167
75.75	4.3061	5.0356	4.3622
76.43	4.3225	5.0808	4.4074
77.11	4.3388	5.1261	4.4527
77.78	4.3547	5.1713	4.4979
78.46	4.3709	5.2166	4.5432
79.14	4.3872	5.2619	4.5885
79.81	4.4001	5.3071	4.6337
80.49	4.4164	5.3524	4.6790
81.17	4.4312	5.3976	4.7241
81.84	4.4491	5.4430	4.7695
82.52	4.4648	5.4881	4.8147
83.19	4.4834	5.5335	4.8601
83.87	4.5007	5.5789	4.9054
84.55	4.5172	5.6240	4.9505
85.22	4.5337	5.6693	4.9958
85.90	4.5495	5.7146	5.0411
86.58	4.5676	5.7598	5.0863
87.25	4.5831	5.8051	5.1317
87.93	4.5969	5.8503	5.1769
88.61	4.6126	5.8955	5.2221
89.28	4.6318	5.9409	5.2675
89.96	4.6485	5.9862	5.3127
90.63	4.6669	6.0314	5.3579
91.31	4.6876	6.0767	5.4032
91.99	4.7079	6.1220	5.4486
92.66	4.7277	6.1672	5.4937
93.34	4.7476	6.2125	5.5391
94.02	4.7676	6.2577	5.5842
94.69	4.7877	6.3030	5.6295
95.37	4.8075	6.3484	5.6749
96.05	4.8266	6.3937	5.7203
96.72	4.8457	6.4389	5.7655
97.40	4.8649	6.4841	5.8106
98.08	4.8814	6.5294	5.8560
98.75	4.9004	6.5746	5.9012
99.43	4.9205	6.6200	5.9466
100.1	4.9402	6.6651	5.9917
100.8	4.9604	6.7105	6.0371
101.5	4.9840	6.7559	6.0824
102.1	5.0043	6.8010	6.1276
102.8	5.0245	6.8463	6.1729
103.5	5.0463	6.8915	6.2181
104.2	5.0692	6.9369	6.2634
104.8	5.0805	6.9821	6.3086
105.5	5.0980	7.0273	6.3539
106.2	5.1203	7.0727	6.3992
106.9	5.1435	7.1178	6.4444
107.5	5.1671	7.1631	6.4896
108.2	5.1896	7.2084	6.5350
108.9	5.2145	7.2539	6.5804
109.6	5.2388	7.2990	6.6256
110.2	5.2626	7.3443	6.6708
110.9	5.2858	7.3896	6.7162
111.6	5.3100	7.4348	6.7614
112.3	5.3315	7.4801	6.8067
113.0	5.3552	7.5254	6.8519
113.6	5.3791	7.5706	6.8971
114.3	5.4031	7.6159	6.9424
115.0	5.4270	7.6610	6.9876
115.7	5.4473	7.7063	7.0329
116.3	5.4707	7.7517	7.0783
117.0	5.4943	7.7970	7.1235
117.7	5.5178	7.8421	7.1687
118.4	5.5411	7.8875	7.2141
119.0	5.5642	7.9327	7.2592
119.7	5.5873	7.9780	7.3046
120.4	5.6103	8.0232	7.3498
121.1	5.6366	8.0685	7.3951
121.7	5.6597	8.1138	7.4404
122.4	5.6847	8.1591	7.4856
123.1	5.7086	8.2043	7.5309
123.8	5.7316	8.2497	7.5763
124.5	5.7586	8.2948	7.6214
125.1	5.7836	8.3401	7.6666
125.8	5.8055	8.3855	7.7120
126.5	5.8300	8.4307	7.7572
127.2	5.8545	8.4759	7.8025
127.8	5.8790	8.5212	7.8478
128.5	5.9038	8.5666	7.8932
129.2	5.9296	8.6118	7.9384
129.9	5.9545	8.6570	7.9835
130.5	5.9776	8.7023	8.0288
131.2	5.9994	8.7476	8.0742
131.9	6.0253	8.7928	8.1194
132.6	6.0476	8.8382	8.1648
133.2	6.0646	8.8833	8.2098
133.9	6.0866	8.9287	8.2552
134.6		8.9740	8.3006

File: Fm2_40.txt
Time (s)	Load (N)	Extension (mm)	Deflection from Preload (mm)
0.0000		0.00000	-0.85286
0.8144	0.0093380	0.019683	-0.83318
1.629	0.039019	0.074148	-0.77871
2.443	0.062736	0.12864	-0.72422
3.258	0.087273	0.18304	-0.66982
4.072	0.11458	0.23756	-0.61530
4.886	0.14218	0.29206	-0.56080
5.701	0.17015	0.34666	-0.50620
6.515	0.19936	0.40104	-0.45182
7.330	0.23222	0.45551	-0.39735
8.144	0.26330	0.51020	-0.34266
8.958	0.29732	0.56464	-0.28823
9.773	0.33150	0.61912	-0.23375
10.59	0.36661	0.67355	-0.17932
11.40	0.40442	0.72806	-0.12480
12.22	0.44597	0.78265	-0.070217
13.03	0.48733	0.83711	-0.015756
13.84	0.53121	0.89173	0.038871
14.66	0.57509	0.94622	0.093359
15.47	0.62117	1.0007	0.14780
16.29	0.67022	1.0552	0.20237
17.10	0.72053	1.1097	0.25688
17.92	0.77170	1.1643	0.31144
18.73	0.82240	1.2187	0.36583
19.55	0.80719	1.2732	0.42033
20.36	0.86362	1.3278	0.47494
21.17	0.92004	1.3823	0.52943
21.99	0.96782	1.4367	0.58387
22.80	1.0021	1.4912	0.63837
23.62	1.0605	1.5457	0.69285
24.43	1.1233	1.6003	0.74744
25.25	1.1870	1.6548	0.80195
26.06	1.2419	1.7093	0.85649
26.87	1.3091	1.7637	0.91084
27.69	1.3776	1.8183	0.96546
28.50	1.4434	1.8728	1.0200
29.32	1.4733	1.9274	1.0745
30.13	1.5408	1.9818	1.1289
30.95	1.6108	2.0363	1.1834
31.76	1.6835	2.0908	1.2379
32.58	1.7567	2.1453	1.2924
33.39	1.8288	2.1999	1.3470
34.20	1.9034	2.2544	1.4015
35.02	1.9764	2.3088	1.4559
35.83	2.0468	2.3632	1.5103
36.65	2.1166	2.4179	1.5650
37.46	2.1822	2.4722	1.6193
38.28	2.2386	2.5268	1.6739
39.09	2.2985	2.5812	1.7284
39.91	2.3689	2.6358	1.7830
40.72	2.4352	2.6904	1.8375
41.53	2.4939	2.7448	1.8920
42.35	2.5562	2.7994	1.9466
43.16	2.6183	2.8539	2.0010
43.98	2.6739	2.9083	2.0554
44.79	2.7295	2.9630	2.1101
45.61	2.7843	3.0174	2.1646
46.42	2.8367	3.0719	2.2190
47.23	2.8851	3.1264	2.2736
48.05	2.9347	3.1808	2.3280
48.86	2.9828	3.2355	2.3826
49.68	3.0275	3.2899	2.4370
50.49	3.0729	3.3445	2.4916
51.31	3.1136	3.3990	2.5461
52.12	3.1544	3.4534	2.6005
52.94	3.1997	3.5079	2.6550
53.75	3.2421	3.5625	2.7096
54.56	3.2852	3.6171	2.7642
55.38	3.3267	3.6714	2.8185
56.19	3.3613	3.7259	2.8730
57.01	3.3959	3.7805	2.9277
57.82	3.4061	3.8349	2.9820
58.64	3.4376	3.8894	3.0366
59.45	3.4691	3.9441	3.0912
60.26	3.5009	3.9986	3.1458
61.08	3.5319	4.0530	3.2001
61.89	3.5529	4.1075	3.2546
62.71	3.5776	4.1620	3.3092
63.52	3.6103	4.2164	3.3636
64.34	3.6378	4.2711	3.4182
65.15	3.6684	4.3255	3.4726
65.97	3.6987	4.3801	3.5272
66.78	3.7270	4.4346	3.5818
67.59	3.7570	4.4892	3.6363
68.41	3.7879	4.5434	3.6905
69.22	3.8161	4.5980	3.7451
70.04	3.8418	4.6526	3.7997
70.85	3.8668	4.7071	3.8543
71.67	3.8914	4.7615	3.9087
72.48	3.9160	4.8161	3.9633
73.30	3.9407	4.8705	4.0176
74.11	3.9686	4.9251	4.0722
74.92	3.9930	4.9796	4.1268
75.74	4.0171	5.0341	4.1812
76.55	4.0389	5.0885	4.2356
77.37	4.0616	5.1431	4.2903
78.18	4.0830	5.1976	4.3447
79.00	4.1001	5.2522	4.3993
79.81	4.1120	5.3066	4.4538
80.62	4.1249	5.3611	4.5082
81.44	4.1478	5.4156	4.5628
82.25	4.1705	5.4701	4.6172
83.07	4.1983	5.5246	4.6718
83.88	4.2252	5.5792	4.7263
84.70	4.2490	5.6336	4.7807
85.51	4.2670	5.6882	4.8354
86.33	4.2873	5.7426	4.8897
87.14	4.3080	5.7971	4.9443
87.95	4.3306	5.8517	4.9988
88.77	4.3566	5.9062	5.0533
89.58	4.3785	5.9606	5.1077
90.40	4.4007	6.0153	5.1624
91.21	4.4231	6.0697	5.2168
92.03	4.4457	6.1242	5.2713
92.84	4.4673	6.1788	5.3259
93.65	4.4860	6.2332	5.3803
94.47	4.5076	6.2877	5.4348
95.28	4.5298	6.3422	5.4894
96.10	4.5526	6.3968	5.5439
96.91	4.5753	6.4512	5.5983
97.73	4.5910	6.5058	5.6529
98.54	4.6053	6.5603	5.7074
99.36	4.6177	6.6147	5.7618
100.2	4.6272	6.6691	5.8163
101.0	4.6352	6.7238	5.8710
101.8	4.6487	6.7782	5.9254
102.6	4.6538	6.8327	5.9798
103.4	4.6659	6.8873	6.0344
104.2	4.6830	6.9418	6.0889
105.1	4.6982	6.9962	6.1434
105.9	4.7128	7.0508	6.1979
106.7	4.7280	7.1053	6.2525
107.5	4.7432	7.1598	6.3069
108.3	4.7604	7.2144	6.3616
109.1	4.7756	7.2689	6.4160
109.9	4.7869	7.3233	6.4704
110.8	4.8024	7.3778	6.5250
111.6	4.8222	7.4324	6.5796
112.4	4.8411	7.4868	6.6340
113.2	4.8536	7.5415	6.6886
114.0	4.8675	7.5958	6.7429
114.8	4.8824	7.6504	6.7976
115.6	4.8985	7.7048	6.8520
116.5	4.9209	7.7595	6.9066
117.3	4.9418	7.8139	6.9611
118.1	4.9633	7.8683	7.0155
118.9	4.9834	7.9230	7.0702
119.7	5.0080	7.9773	7.1244
120.5	5.0297	8.0319	7.1791
121.3	5.0510	8.0865	7.2336
122.2	5.0730	8.1408	7.2880
123.0	5.0947	8.1955	7.3426
123.8	5.1116	8.2499	7.3970
124.6	5.1316	8.3043	7.4514
125.4	5.1525	8.3590	7.5061
126.2	5.1750	8.4135	7.5606
127.0	5.1960	8.4679	7.6150
127.9	5.2170	8.5225	7.6696
128.7	5.2343	8.5768	7.7240
129.5	5.2603	8.6314	7.7786
130.3	5.2833	8.6860	7.8331
131.1	5.3029	8.7404	7.8875
131.9	5.3253	8.7950	7.9421
132.7	5.3475	8.8496	7.9967
133.6	5.3704	8.9039	8.0510
134.4	5.3947	8.9585	8.1056
135.2	5.4153	9.0130	8.1601
136.0	5.4346	9.0674	8.2146
136.8	5.4556	9.1219	8.2691
137.6	5.4815	9.1764	8.3236
138.4	5.5040	9.2310	8.3782
139.3	5.5241	9.2855	8.4327
140.1	5.5469	9.3400	8.4872
140.9	5.5697	9.3945	8.5417
141.7	5.5919	9.4490	8.5961
142.5	5.6151	9.5036	8.6508
143.3	5.6419	9.5580	8.7052
144.1	5.6601	9.6126	8.7597
145.0	5.6835	9.6670	8.8141
145.8	5.7016	9.7215	8.8686
146.6	5.7199	9.7760	8.9232
147.4	5.7412	9.8305	8.9777
148.2	5.7600	9.8851	9.0323
149.0	5.7788	9.9396	9.0868
149.8	5.7953	9.9941	9.1412
150.7	5.7992	10.049	9.1957
151.5	5.8064	10.103	9.2503
152.3	5.8234	10.158	9.3048
153.1	5.8435	10.212	9.3592
153.9	5.8659	10.267	9.4137
154.7	5.8914	10.321	9.4682
155.5	5.9173	10.376	9.5227
156.4	5.9429	10.430	9.5772
157.2	5.9678	10.485	9.6318
158.0	5.9929	10.539	9.6863
158.8	6.0179	10.594	9.7409
159.6	6.0419	10.648	9.7953
160.4	6.0644	10.703	9.8497
161.2	6.0848	10.757	9.9042
162.1		10.812	9.9588

File: Fm2_41.txt
Time (s)	Load (N)	Extension (mm)	Deflection from Preload (mm)
0.0000
0.9310	0.0034152	0.028466	-0.78722
1.862	0.017321	0.090940	-0.72474
2.793	0.035888	0.15310	-0.66258
3.724	0.053289	0.21541	-0.60027
4.655	0.078693	0.27787	-0.53781
5.586	0.10674	0.34014	-0.47555
6.517	0.14010	0.40246	-0.41323
7.448	0.17907	0.46469	-0.35100
8.379	0.22133	0.52688	-0.28881
9.310	0.27411	0.58919	-0.22649
10.24	0.33159	0.65176	-0.16392
11.17	0.39130	0.71390	-0.10178
12.10	0.45697	0.77631	-0.039368
13.03	0.52514	0.83860	0.022915
13.97	0.59871	0.90077	0.085090
14.90	0.68064	0.96329	0.14761
15.83	0.76119	1.0256	0.20991
16.76	0.84354	1.0877	0.27199
17.69	0.92025	1.1501	0.33442
18.62	0.99419	1.2124	0.39673
19.55	1.0665	1.2747	0.45899
20.48	1.1148	1.3369	0.52126
21.41	1.1931	1.3994	0.58375
22.34	1.2758	1.4617	0.64603
23.28	1.3561	1.5239	0.70825
24.21	1.4338	1.5863	0.77061
25.14	1.5116	1.6487	0.83301
26.07	1.5823	1.7109	0.89523
27.00	1.6561	1.7733	0.95761
27.93	1.7254	1.8356	1.0199
28.86	1.7899	1.8979	1.0823
29.79	1.8538	1.9603	1.1446
30.72	1.9166	2.0225	1.2068
31.65	1.9741	2.0847	1.2690
32.59	2.0267	2.1470	1.3313
33.52	2.0775	2.2094	1.3937
34.45	2.1259	2.2717	1.4560
35.38	2.1729	2.3340	1.5183
36.31	2.2145	2.3964	1.5807
37.24	2.2533	2.4587	1.6431
38.17	2.2935	2.5209	1.7052
39.10	2.3316	2.5832	1.7676
40.03	2.3649	2.6456	1.8299
40.97	2.4007	2.7078	1.8921
41.90	2.4364	2.7704	1.9547
42.83	2.4721	2.8325	2.0168
43.76	2.5028	2.8949	2.0793
44.69	2.5325	2.9571	2.1414
45.62	2.5636	3.0195	2.2038
46.55	2.5902	3.0817	2.2660
47.48	2.6105	3.1442	2.3285
48.41	2.6190	3.2065	2.3908
49.34	2.6377	3.2687	2.4530
50.28	2.6624	3.3311	2.5154
51.21	2.6828	3.3934	2.5777
52.14	2.6957	3.4556	2.6399
53.07	2.7139	3.5181	2.7024
54.00	2.7324	3.5802	2.7646
54.93	2.7506	3.6426	2.8269
55.86	2.7594	3.7048	2.8892
56.79	2.7740	3.7672	2.9515
57.72	2.7886	3.8295	3.0138
58.65	2.8100	3.8919	3.0762
59.59	2.8275	3.9542	3.1385
60.52	2.8448	4.0164	3.2007
61.45	2.8523	4.0789	3.2632
62.38	2.8564	4.1410	3.3254
63.31	2.8639	4.2035	3.3878
64.24	2.8785	4.2657	3.4500
65.17	2.8913	4.3280	3.5123
66.10	2.9054	4.3904	3.5747
67.03	2.9148	4.4526	3.6369
67.96	2.9258	4.5151	3.6994
68.90	2.9382	4.5773	3.7616
69.83	2.9519	4.6396	3.8240
70.76	2.9663	4.7019	3.8862
71.69	2.9806	4.7642	3.9485
72.62	3.0005	4.8264	4.0108
73.55	3.0179	4.8887	4.0730
74.48	3.0354	4.9512	4.1355
75.41	3.0528	5.0134	4.1978
76.34	3.0700	5.0758	4.2601
77.28	3.0836	5.1381	4.3224
78.21	3.0986	5.2005	4.3848
79.14	3.1174	5.2627	4.4470
80.07	3.1338	5.3249	4.5092
81.00	3.1499	5.3873	4.5716
81.93	3.1660	5.4497	4.6340
82.86	3.1814	5.5120	4.6963
83.79	3.1939	5.5742	4.7585
84.72	3.2099	5.6365	4.8208
85.65	3.2272	5.6988	4.8831
86.59	3.2446	5.7612	4.9455
87.52	3.2536	5.8235	5.0078
88.45	3.2683	5.8858	5.0701
89.38	3.2791	5.9481	5.1325
90.31	3.2839	6.0104	5.1948
91.24	3.2948	6.0728	5.2571
92.17	3.3006	6.1350	5.3193
93.10	3.3127	6.1974	5.3818
94.03	3.3272	6.2598	5.4441
94.96	3.3400	6.3220	5.5063
95.90	3.3438	6.3843	5.5686
96.83	3.3563	6.4466	5.6309
97.76	3.3745	6.5088	5.6931
98.69	3.3909	6.5712	5.7555
99.62	3.4099	6.6337	5.8180
100.6	3.4296	6.6960	5.8803
101.5	3.4520	6.7581	5.9424
102.4	3.4746	6.8206	6.0049
103.3	3.4944	6.8829	6.0672
104.3	3.5152	6.9451	6.1294
105.2	3.5343	7.0075	6.1918
106.1	3.4365	7.0697	6.2540
107.1	3.4373	7.1319	6.3163
108.0	3.4539	7.1943	6.3787
108.9	3.4818	7.2567	6.4410
109.9	3.5082	7.3190	6.5033
110.8	3.5307	7.3812	6.5655
111.7	3.5575	7.4437	6.6280
112.7	3.5864	7.5060	6.6903
113.6	3.6064	7.5683	6.7526
114.5	3.6295	7.6304	6.8148
115.4	3.6518	7.6929	6.8772
116.4	3.6726	7.7552	6.9395
117.3	3.6925	7.8176	7.0019
118.2	3.7122	7.8799	7.0642
119.2	3.7280	7.9420	7.1264
120.1	3.7433	8.0046	7.1889
121.0	3.7582	8.0668	7.2511
122.0	3.7727	8.1290	7.3133
122.9	3.7860	8.1914	7.3757
123.8	3.7979	8.2538	7.4381
124.8	3.8138	8.3160	7.5003
125.7	3.8201	8.3782	7.5626
126.6	3.8322	8.4407	7.6250
127.6	3.8461	8.5029	7.6872
128.5	3.8580	8.5651	7.7494
129.4	3.8747	8.6276	7.8119
130.3	3.8927	8.6898	7.8741
131.3	3.9099	8.7521	7.9364
132.2	3.9263	8.8146	7.9989
133.1	3.9448	8.8767	8.0610
134.1	3.9610	8.9390	8.1233
135.0	3.9769	9.0014	8.1857
135.9	3.9863	9.0637	8.2480
136.9	3.9082	9.1262	8.3105
137.8	3.9118	9.1884	8.3727
138.7	3.9287	9.2506	8.4349
139.7	3.9496	9.3129	8.4973
140.6	3.9787	9.3752	8.5596
141.5	4.0057	9.4376	8.6219
142.4	4.0362	9.4999	8.6843
143.4	4.0666	9.5622	8.7465
144.3	4.0961	9.6245	8.8088
145.2	4.1294	9.6868	8.8711
146.2	4.1590	9.7491	8.9335
147.1	4.1883	9.8114	8.9958
148.0	4.2156	9.8738	9.0581
149.0	4.2414	9.9360	9.1204
149.9	4.2702	9.9984	9.1828
150.8	4.2981	10.061	9.2450
151.8	4.3242	10.123	9.3073
152.7	4.3501	10.185	9.3697
153.6	4.3766	10.248	9.4319
154.6	4.4036	10.310	9.4943
155.5	4.4309	10.372	9.5567
156.4	4.4462	10.435	9.6189
157.3	4.4698	10.497	9.6813
158.3	4.4987	10.559	9.7435
159.2	4.5251	10.622	9.8059
160.1	4.5509	10.684	9.8682
161.1	4.5799	10.746	9.9304
162.0	4.6067	10.809	9.9929
162.9	4.6340	10.871	10.055
163.9	4.6615	10.933	10.117
164.8	4.6918	10.995	10.180
165.7	4.7008	11.058	10.242
166.7	4.7310	11.120	10.304
167.6	4.7632	11.182	10.367
168.5	4.7955	11.245	10.429
169.4	4.8258	11.307	10.491
170.4	4.8505	11.369	10.554
171.3	4.8799	11.432	10.616
172.2	4.9073	11.494	10.678
173.2	4.9331	11.556	10.741
174.1	4.9553	11.619	10.803
175.0	4.9810	11.681	10.865
176.0	5.0078	11.743	10.927
176.9	5.0354	11.805	10.990
177.8	5.0593	11.868	11.052
178.8	5.0833	11.930	11.114
179.7	5.1095	11.992	11.177
180.6	5.1369	12.055	11.239
181.6	5.1639	12.117	11.301
182.5	5.1841	12.179	11.364
183.4	5.2089	12.242	11.426
184.3	5.2341	12.304	11.488
185.3		12.366	11.551